ax,ay,az,gx,gy,gz,mx,my,mz,t_stamp
-0.020925652387986212,0.03197925669835782,1.008751948207649,0.45776367,-0.1296997065,0.137329101,161.1,-158.1,-63.3,11220
-0.02018709995076317,0.03272008889986418,1.005754705670783,-0.2212524405,0.1602172845,0.0,156.29999999999998,-155.7,-64.5,11447
-0.020433284096504186,0.03173231263118904,1.0106701834312433,-0.2670288075,0.45776367,-0.5264282205,158.7,-153.29999999999998,-63.9,11673
-0.019694731659281144,0.032596616866279786,1.008032609998801,0.0,0.061035156,0.0,168.29999999999998,-155.7,-62.699999999999996,11899
-0.020433284096504186,0.032843560933448576,1.007792830595852,-0.015258789,0.0,0.0534057615,158.7,-158.1,-63.3,12124
-0.02141802067946824,0.03407828126929251,1.0074331614914278,0.0381469725,0.030517578,0.0381469725,165.9,-158.1,-63.9,12349
-0.021048744460856722,0.03197925669835782,1.0062342644766815,-0.0076293945,0.106811523,0.030517578,165.9,-155.7,-63.3,12574
-0.021541112752338748,0.030991480429682677,1.0071933820884786,-0.045776367,0.106811523,-0.0228881835,165.9,-153.29999999999998,-63.9,12807
-0.021294928606597735,0.03185578466477343,1.0051552571634097,0.0,0.030517578,0.045776367,156.29999999999998,-158.1,-62.099999999999994,13093
-0.02018709995076317,0.033707865168539325,1.0075530511929025,-0.091552734,0.0686645505,-0.0076293945,161.1,-153.29999999999998,-63.3,13380
-0.019571639586410634,0.033707865168539325,1.008751948207649,0.0991821285,0.091552734,-0.0686645505,165.9,-158.1,-64.5,13665
-0.019571639586410634,0.029262871959501172,1.0062342644766815,0.061035156,0.0228881835,-0.0534057615,151.5,-153.29999999999998,-62.099999999999994,13952
-0.019448547513540127,0.02950981602666996,1.0046756983575111,-0.0686645505,0.106811523,0.015258789,158.7,-153.29999999999998,-63.9,14238
-0.020064007877892663,0.030497592295345103,1.0058745953722574,-0.0076293945,0.0686645505,0.0381469725,161.1,-158.1,-62.699999999999996,14525
-0.021541112752338748,0.03210272873194221,1.0040762498501379,0.061035156,0.0381469725,-0.0686645505,156.29999999999998,-160.5,-63.9,14811
-0.021048744460856722,0.03358439313495493,1.0062342644766815,0.0381469725,0.015258789,-0.076293945,163.5,-148.5,-63.9,15098
-0.022156573116691284,0.03173231263118904,1.0071933820884786,-0.0076293945,0.030517578,0.0076293945,153.9,-155.7,-62.699999999999996,15383
-0.020064007877892663,0.03296703296703297,1.007073492387004,0.045776367,0.091552734,0.0,165.9,-160.5,-62.699999999999996,15670
-0.01981782373215165,0.032473144832695394,1.006354154178156,0.0839233395,0.0228881835,0.0381469725,163.5,-158.1,-64.5,15957
-0.021664204825209258,0.03296703296703297,1.0047955880589858,0.0839233395,0.015258789,-0.076293945,158.7,-155.7,-64.5,16243
-0.019940915805022157,0.03309050500061736,1.008392279103225,0.0,0.0686645505,-0.0534057615,161.1,-158.1,-63.9,16529
-0.020064007877892663,0.031361896530435855,1.0085121688046996,-0.076293945,0.0839233395,0.0228881835,163.5,-158.1,-65.1,16815
-0.019571639586410634,0.03025064822817632,1.0062342644766815,-0.0381469725,0.061035156,-0.030517578,161.1,-155.7,-64.5,17101
-0.01932545544066962,0.030003704161007533,1.0079127202973264,0.045776367,0.091552734,-0.0381469725,156.29999999999998,-148.5,-63.3,17388
-0.021048744460856722,0.03185578466477343,1.0082723894017505,0.030517578,0.0534057615,0.061035156,156.29999999999998,-155.7,-62.099999999999994,17674
-0.01981782373215165,0.031361896530435855,1.0052751468648844,0.0534057615,0.061035156,-0.015258789,156.29999999999998,-153.29999999999998,-63.3,17960
-0.020433284096504186,0.03321397703420175,1.0059944850737321,0.106811523,0.0534057615,0.0,161.1,-155.7,-64.5,18246
-0.020064007877892663,0.03111495246326707,1.006354154178156,-0.0076293945,0.076293945,0.0228881835,161.1,-150.9,-64.5,18534
-0.019694731659281144,0.029880232127423138,1.0079127202973264,-0.045776367,0.0991821285,-0.015258789,158.7,-153.29999999999998,-62.699999999999996,18820
-0.019940915805022157,0.030003704161007533,1.0059944850737321,0.0,0.045776367,-0.0381469725,158.7,-150.9,-65.7,19106
-0.02141802067946824,0.032596616866279786,1.0089917276105982,0.0,0.106811523,0.0,163.5,-155.7,-64.5,19391
-0.021664204825209258,0.03333744906778615,1.0062342644766815,-0.015258789,0.1296997065,0.045776367,163.5,-153.29999999999998,-64.5,19679
-0.019202363367799114,0.03148536856402025,1.005754705670783,0.0381469725,0.076293945,0.0,158.7,-150.9,-64.5,19965
-0.020802560315115706,0.032843560933448576,1.0035966910442393,0.122070312,0.1144409175,0.061035156,161.1,-153.29999999999998,-63.9,20251
-0.020433284096504186,0.031608840597604645,1.0062342644766815,0.0839233395,0.030517578,0.0,158.7,-153.29999999999998,-62.099999999999994,20537
-0.01932545544066962,0.029386343993085567,1.007073492387004,0.0534057615,0.1602172845,-0.045776367,156.29999999999998,-153.29999999999998,-63.3,20824
-0.020802560315115706,0.03148536856402025,1.0052751468648844,-0.030517578,0.0839233395,0.0076293945,163.5,-155.7,-61.5,21112
-0.02141802067946824,0.031608840597604645,1.0053950365663589,-0.0228881835,0.106811523,0.0228881835,163.5,-162.9,-62.699999999999996,21399
-0.019202363367799114,0.031361896530435855,1.0068337129840548,0.0381469725,0.1754760735,0.0,161.1,-160.5,-64.5,21684
-0.01883308714918759,0.030497592295345103,1.005035367461935,-0.076293945,0.167846679,0.0381469725,163.5,-158.1,-63.3,21972
-0.01932545544066962,0.03025064822817632,1.0074331614914278,-0.0686645505,0.0686645505,0.0,165.9,-153.29999999999998,-63.3,22258
-0.020556376169374693,0.03185578466477343,1.0099508452223953,-0.015258789,0.0534057615,-0.0381469725,161.1,-158.1,-64.5,22544
-0.022156573116691284,0.03346092110137054,1.0069536026855292,0.1296997065,0.030517578,0.061035156,161.1,-162.9,-63.3,22829
-0.022525849335302807,0.03358439313495493,1.0068337129840548,0.0534057615,0.091552734,0.0076293945,158.7,-165.29999999999998,-63.3,23115
-0.02031019202363368,0.032596616866279786,1.007073492387004,0.0228881835,0.0686645505,-0.0228881835,158.7,-160.5,-63.3,23401
-0.020433284096504186,0.032843560933448576,1.005754705670783,-0.076293945,-0.0228881835,-0.030517578,156.29999999999998,-158.1,-63.3,23689
-0.0189561792220581,0.03469564143721447,1.004316029253087,-0.0228881835,0.0839233395,-0.045776367,161.1,-155.7,-63.9,23974
-0.019940915805022157,0.03272008889986418,1.0069536026855292,0.015258789,0.0,-0.0076293945,163.5,-158.1,-63.3,24260
-0.020556376169374693,0.030621064328929498,1.0069536026855292,0.0076293945,0.045776367,-0.0839233395,153.9,-153.29999999999998,-64.5,24545
-0.019940915805022157,0.033707865168539325,1.007073492387004,0.045776367,0.076293945,-0.091552734,161.1,-158.1,-63.3,24832
-0.020556376169374693,0.03197925669835782,1.0051552571634097,-0.015258789,-0.0534057615,-0.030517578,153.9,-155.7,-63.9,25117
-0.018340718857705565,0.03197925669835782,1.0053950365663589,0.0228881835,-0.0076293945,0.030517578,161.1,-155.7,-62.099999999999994,25403
-0.019202363367799114,0.031361896530435855,1.0056348159693083,0.015258789,-0.0228881835,-0.045776367,158.7,-162.9,-63.3,25689
-0.019940915805022157,0.030497592295345103,1.0071933820884786,0.045776367,0.061035156,-0.0076293945,161.1,-158.1,-62.699999999999996,25975
-0.019571639586410634,0.030991480429682677,1.005035367461935,0.0,0.0381469725,-0.0076293945,161.1,-155.7,-63.3,26262
-0.020556376169374693,0.032596616866279786,1.0073132717899533,0.076293945,0.1144409175,-0.091552734,158.7,-160.5,-65.1,26548
-0.0189561792220581,0.03148536856402025,1.0069536026855292,0.0,0.0686645505,0.0228881835,156.29999999999998,-153.29999999999998,-62.099999999999994,26833
-0.020064007877892663,0.030868008396098285,1.0074331614914278,0.1296997065,0.0686645505,0.015258789,163.5,-153.29999999999998,-63.3,27120
-0.021294928606597735,0.031238424496851463,1.005035367461935,-0.0076293945,0.0839233395,-0.0228881835,156.29999999999998,-148.5,-63.3,27406
-0.020064007877892663,0.032349672799111,1.00671382328258,0.0228881835,0.106811523,-0.1144409175,158.7,-155.7,-63.3,27692
-0.018217626784835055,0.030003704161007533,1.0074331614914278,0.030517578,0.030517578,-0.0228881835,161.1,-160.5,-63.3,27977
-0.018340718857705565,0.033707865168539325,1.0082723894017505,-0.0228881835,0.045776367,0.0076293945,158.7,-162.9,-63.3,28263
-0.021541112752338748,0.03210272873194221,1.0046756983575111,0.045776367,0.030517578,-0.0381469725,158.7,-150.9,-64.5,28550
-0.020925652387986212,0.031238424496851463,1.0047955880589858,0.091552734,0.030517578,-0.0381469725,158.7,-160.5,-62.099999999999994,28839
-0.021048744460856722,0.031608840597604645,1.0051552571634097,-0.015258789,-0.0076293945,0.061035156,158.7,-158.1,-63.3,29124
-0.019694731659281144,0.03197925669835782,1.0094712864164967,0.0381469725,0.015258789,-0.0381469725,161.1,-155.7,-62.099999999999994,29410
-0.01932545544066962,0.03185578466477343,1.007073492387004,0.0839233395,0.0991821285,0.015258789,158.7,-153.29999999999998,-62.699999999999996,29696
-0.0206794682422452,0.03173231263118904,1.006354154178156,0.0381469725,0.0686645505,-0.0534057615,161.1,-150.9,-62.099999999999994,29982
-0.019079271294928608,0.03309050500061736,1.0073132717899533,0.0,0.0,0.0076293945,163.5,-160.5,-62.099999999999994,30267
-0.020802560315115706,0.031608840597604645,1.0065939335811054,-0.0839233395,0.045776367,0.015258789,161.1,-158.1,-62.099999999999994,30554
-0.02031019202363368,0.031608840597604645,1.006354154178156,-0.106811523,0.1449584955,-0.0228881835,161.1,-153.29999999999998,-63.3,30842
-0.019202363367799114,0.03222620076552661,1.0061143747752068,-0.0076293945,0.1296997065,0.030517578,156.29999999999998,-155.7,-63.9,31129
-0.01932545544066962,0.03346092110137054,1.0059944850737321,0.0076293945,0.122070312,-0.0534057615,161.1,-158.1,-60.9,31414
-0.0206794682422452,0.03358439313495493,1.0062342644766815,0.1144409175,0.1449584955,-0.0381469725,153.9,-155.7,-62.699999999999996,31701
-0.018340718857705565,0.030621064328929498,1.0059944850737321,0.015258789,0.1144409175,-0.045776367,153.9,-148.5,-63.9,31986
-0.018709995076317085,0.030003704161007533,1.0068337129840548,0.0228881835,-0.0228881835,-0.0534057615,156.29999999999998,-153.29999999999998,-62.099999999999994,32272
-0.019448547513540127,0.029880232127423138,1.0051552571634097,0.122070312,0.1144409175,-0.091552734,158.7,-155.7,-65.1,32558
-0.020433284096504186,0.03210272873194221,1.0069536026855292,0.137329101,0.045776367,-0.0381469725,161.1,-158.1,-63.3,32844
-0.02031019202363368,0.035189529571552046,1.007073492387004,0.0534057615,0.0534057615,-0.076293945,158.7,-153.29999999999998,-63.3,33130
-0.019940915805022157,0.029015927892332385,1.0061143747752068,0.0228881835,0.076293945,0.0,156.29999999999998,-155.7,-64.5,33415
-0.019571639586410634,0.026176071119891346,1.005035367461935,0.030517578,0.137329101,-0.030517578,158.7,-153.29999999999998,-63.9,33701
-0.021294928606597735,0.0342017533028769,1.0081524997002758,0.061035156,0.1144409175,0.0,161.1,-155.7,-64.5,33987
-0.0189561792220581,0.03197925669835782,1.0085121688046996,0.045776367,0.076293945,0.0,153.9,-155.7,-63.3,34272
-0.023879862136878385,0.0395110507470058,1.0075530511929025,-0.0686645505,0.1296997065,-0.0076293945,158.7,-150.9,-64.5,34558
-0.018709995076317085,0.023953574515372267,1.0082723894017505,0.0381469725,0.091552734,0.030517578,163.5,-155.7,-64.5,34844
-0.02277203348104382,0.03383133720212372,1.0064740438796307,-0.0534057615,0.0534057615,0.0,163.5,-153.29999999999998,-64.5,35129
-0.01809453471196455,0.028522039757994815,1.0071933820884786,-0.061035156,0.0381469725,-0.061035156,156.29999999999998,-155.7,-63.9,35414
-0.018217626784835055,0.032596616866279786,1.0064740438796307,0.0228881835,0.1754760735,0.0686645505,165.9,-158.1,-62.099999999999994,35700
-0.020556376169374693,0.0395110507470058,1.008032609998801,0.0686645505,0.106811523,-0.0381469725,153.9,-158.1,-63.9,35987
-0.018217626784835055,0.030127176194591924,1.007792830595852,-0.0381469725,0.061035156,-0.045776367,158.7,-150.9,-64.5,36272
-0.0224027572624323,0.03222620076552661,1.0058745953722574,0.0228881835,0.106811523,-0.030517578,163.5,-160.5,-63.3,36558
-0.022895125553914326,0.03197925669835782,1.005035367461935,0.076293945,0.045776367,-0.0686645505,163.5,-153.29999999999998,-65.1,36843
-0.017848350566223536,0.03309050500061736,1.0061143747752068,-0.061035156,0.0686645505,-0.0381469725,161.1,-153.29999999999998,-62.099999999999994,37129
-0.019694731659281144,0.033707865168539325,1.007792830595852,-0.061035156,0.0076293945,-0.0381469725,156.29999999999998,-155.7,-62.699999999999996,37417
-0.019940915805022157,0.03296703296703297,1.0052751468648844,-0.030517578,0.076293945,-0.106811523,158.7,-155.7,-61.5,37703
-0.02191038897095027,0.03173231263118904,1.0079127202973264,-0.0076293945,0.045776367,-0.0076293945,161.1,-162.9,-63.3,37990
-0.02277203348104382,0.030868008396098285,1.0044359189545617,0.0534057615,0.061035156,0.045776367,161.1,-158.1,-63.9,38275
-0.024249138355489905,0.03037412026176071,1.0039563601486632,-0.045776367,0.0686645505,-0.0534057615,158.7,-155.7,-64.5,38562
-0.02117183653372723,0.03173231263118904,1.006354154178156,-0.0839233395,0.0381469725,0.0076293945,168.29999999999998,-155.7,-62.699999999999996,38847
-0.017355982274741506,0.032473144832695394,1.005754705670783,-0.045776367,0.0381469725,0.030517578,158.7,-158.1,-63.9,39134
-0.019079271294928608,0.03173231263118904,1.0071933820884786,0.045776367,0.045776367,0.015258789,158.7,-153.29999999999998,-61.5,39419
-0.0189561792220581,0.030868008396098285,1.005754705670783,-0.0991821285,0.167846679,-0.061035156,163.5,-153.29999999999998,-62.099999999999994,39705
-0.01932545544066962,0.03296703296703297,1.0049154777604603,-0.015258789,0.1144409175,-0.030517578,156.29999999999998,-153.29999999999998,-62.099999999999994,39991
-0.02117183653372723,0.031238424496851463,1.0044359189545617,0.0839233395,0.0228881835,0.030517578,161.1,-150.9,-65.1,40278
-0.021294928606597735,0.029880232127423138,1.0068337129840548,0.0076293945,0.076293945,0.030517578,161.1,-158.1,-63.9,40563
-0.021048744460856722,0.03197925669835782,1.007073492387004,-0.0381469725,0.061035156,0.076293945,153.9,-155.7,-62.099999999999994,40849
-0.019448547513540127,0.033707865168539325,1.0065939335811054,-0.0076293945,0.091552734,0.0381469725,156.29999999999998,-158.1,-63.3,41135
-0.019202363367799114,0.03210272873194221,1.0093513967150223,0.0228881835,0.0991821285,0.045776367,158.7,-155.7,-63.3,41421
-0.018217626784835055,0.030868008396098285,1.0052751468648844,0.0991821285,0.0534057615,-0.0534057615,156.29999999999998,-158.1,-62.099999999999994,41706
-0.02031019202363368,0.031238424496851463,1.0089917276105982,0.0381469725,0.0991821285,-0.076293945,153.9,-150.9,-62.099999999999994,41993
-0.019448547513540127,0.03309050500061736,1.0086320585061743,0.1602172845,0.015258789,-0.0381469725,158.7,-155.7,-64.5,42278
-0.021664204825209258,0.03333744906778615,1.0076729408943772,0.0381469725,0.0,0.015258789,156.29999999999998,-160.5,-62.099999999999994,42564
-0.021664204825209258,0.032473144832695394,1.007073492387004,-0.0686645505,0.061035156,-0.0076293945,156.29999999999998,-155.7,-62.699999999999996,42849
-0.020802560315115706,0.03173231263118904,1.0076729408943772,-0.122070312,0.091552734,-0.045776367,156.29999999999998,-155.7,-62.699999999999996,43136
-0.01981782373215165,0.03037412026176071,1.0052751468648844,0.0,0.061035156,-0.0991821285,161.1,-160.5,-63.9,43421
-0.019571639586410634,0.029262871959501172,1.0053950365663589,0.091552734,0.015258789,-0.0534057615,165.9,-158.1,-63.9,43709
-0.020802560315115706,0.030497592295345103,1.007792830595852,0.061035156,0.061035156,-0.076293945,161.1,-153.29999999999998,-63.9,43994
-0.020925652387986212,0.031361896530435855,1.006354154178156,0.061035156,0.122070312,-0.0381469725,158.7,-150.9,-63.9,44281
-0.02141802067946824,0.032843560933448576,1.0064740438796307,-0.0381469725,0.061035156,-0.0076293945,163.5,-148.5,-63.3,44566
-0.022895125553914326,0.031361896530435855,1.0064740438796307,-0.091552734,0.0839233395,-0.015258789,158.7,-160.5,-62.699999999999996,44852
-0.02191038897095027,0.030003704161007533,1.0055149262678336,0.030517578,0.091552734,-0.076293945,158.7,-153.29999999999998,-61.5,45138
-0.018709995076317085,0.03074453636251389,1.0046756983575111,0.0076293945,0.122070312,0.0076293945,158.7,-158.1,-63.9,45424
-0.018586903003446578,0.03037412026176071,1.0058745953722574,0.030517578,0.076293945,-0.0381469725,153.9,-158.1,-63.9,45709
-0.018586903003446578,0.03333744906778615,1.0059944850737321,0.0839233395,0.076293945,-0.0534057615,163.5,-153.29999999999998,-64.5,45997
-0.020064007877892663,0.030991480429682677,1.0088718379091237,0.0076293945,0.0,-0.0381469725,156.29999999999998,-158.1,-62.099999999999994,46283
-0.01981782373215165,0.030621064328929498,1.0068337129840548,-0.1296997065,0.0228881835,-0.061035156,163.5,-148.5,-65.1,46570
-0.023141309699655343,0.031608840597604645,1.0028773528353914,0.030517578,0.0839233395,-0.1144409175,163.5,-153.29999999999998,-64.5,46855
-0.021664204825209258,0.03210272873194221,1.0058745953722574,0.0381469725,0.1144409175,-0.106811523,158.7,-150.9,-62.699999999999996,47141
-0.019202363367799114,0.0342017533028769,1.0081524997002758,-0.030517578,0.137329101,0.0991821285,153.9,-155.7,-64.5,47427
-0.0206794682422452,0.03346092110137054,1.0049154777604603,0.0,0.0534057615,0.076293945,163.5,-155.7,-62.099999999999994,47713
-0.020064007877892663,0.03173231263118904,1.005035367461935,-0.0839233395,0.0686645505,-0.045776367,158.7,-155.7,-63.3,47998
-0.021048744460856722,0.03111495246326707,1.008392279103225,-0.045776367,0.167846679,0.0381469725,158.7,-150.9,-63.9,48284
-0.020925652387986212,0.03025064822817632,1.0065939335811054,0.030517578,0.0534057615,0.0381469725,156.29999999999998,-155.7,-64.5,48569
-0.021787296898079764,0.02913939992591678,1.005754705670783,0.0,-0.030517578,-0.0228881835,158.7,-153.29999999999998,-62.699999999999996,48855
-0.020925652387986212,0.031238424496851463,1.0069536026855292,0.0,0.0686645505,-0.0534057615,153.9,-155.7,-62.099999999999994,49141
-0.020925652387986212,0.03222620076552661,1.0071933820884786,-0.030517578,0.0686645505,-0.076293945,158.7,-158.1,-63.3,49427
-0.020433284096504186,0.03197925669835782,1.0058745953722574,-0.0228881835,0.061035156,-0.061035156,161.1,-153.29999999999998,-63.3,49712
-0.018586903003446578,0.03296703296703297,1.0047955880589858,0.045776367,0.091552734,-0.0076293945,158.7,-155.7,-62.099999999999994,49998
-0.020925652387986212,0.03272008889986418,1.0062342644766815,0.061035156,0.0991821285,-0.0076293945,158.7,-165.29999999999998,-62.099999999999994,50284
-0.0189561792220581,0.02913939992591678,1.0059944850737321,-0.045776367,0.091552734,-0.0228881835,151.5,-153.29999999999998,-63.3,50571
-0.018217626784835055,0.03025064822817632,1.0053950365663589,-0.0381469725,0.15258789,-0.0381469725,161.1,-162.9,-63.3,50857
-0.020064007877892663,0.03074453636251389,1.0071933820884786,0.076293945,0.122070312,-0.015258789,163.5,-160.5,-63.9,51143
-0.02117183653372723,0.03358439313495493,1.006354154178156,-0.0076293945,0.0381469725,0.015258789,153.9,-153.29999999999998,-64.5,51428
-0.02018709995076317,0.03173231263118904,1.00335691164129,0.091552734,0.0686645505,-0.045776367,161.1,-155.7,-64.5,51715
-0.020064007877892663,0.032596616866279786,1.008032609998801,-0.0228881835,0.0076293945,-0.0228881835,161.1,-158.1,-65.1,52000
-0.019079271294928608,0.03346092110137054,1.007073492387004,-0.015258789,0.0686645505,-0.091552734,161.1,-160.5,-64.5,52286
-0.018709995076317085,0.03210272873194221,1.005035367461935,0.0,0.198364257,-0.15258789,163.5,-155.7,-63.3,52571
-0.021294928606597735,0.031361896530435855,1.0097110658194461,-0.0381469725,0.076293945,-0.030517578,161.1,-155.7,-64.5,52857
-0.022156573116691284,0.030621064328929498,1.0044359189545617,0.0381469725,0.0381469725,-0.030517578,161.1,-155.7,-64.5,53142
-0.021048744460856722,0.03222620076552661,1.0056348159693083,0.0076293945,0.0534057615,-0.0991821285,165.9,-155.7,-63.3,53428
-0.02326440177252585,0.032473144832695394,1.0079127202973264,0.0228881835,0.0076293945,-0.0839233395,158.7,-155.7,-64.5,53714
-0.020064007877892663,0.030127176194591924,1.0094712864164967,-0.015258789,0.0534057615,0.0228881835,156.29999999999998,-153.29999999999998,-63.9,53999
-0.020802560315115706,0.032349672799111,1.0061143747752068,-0.0534057615,0.0076293945,-0.0381469725,156.29999999999998,-160.5,-63.3,54285
-0.021294928606597735,0.029386343993085567,1.0059944850737321,-0.0991821285,0.076293945,-0.076293945,163.5,-150.9,-63.9,54572
-0.02031019202363368,0.030868008396098285,1.0056348159693083,0.030517578,0.076293945,0.0076293945,165.9,-158.1,-62.699999999999996,54859
-0.019202363367799114,0.03222620076552661,1.0065939335811054,-0.015258789,0.091552734,0.0534057615,163.5,-162.9,-62.699999999999996,55146
-0.020925652387986212,0.029386343993085567,1.007792830595852,-0.015258789,0.0534057615,-0.0228881835,158.7,-155.7,-63.3,55431
-0.021541112752338748,0.030868008396098285,1.0062342644766815,0.1907348625,0.0686645505,-0.076293945,163.5,-158.1,-63.9,55717
-0.020064007877892663,0.03185578466477343,1.01007073492387,0.0076293945,0.1144409175,-0.0991821285,163.5,-155.7,-64.5,56002
-0.0189561792220581,0.031361896530435855,1.0075530511929025,-0.0991821285,0.015258789,-0.0381469725,158.7,-160.5,-64.5,56288
-0.02117183653372723,0.03173231263118904,1.006354154178156,-0.0381469725,0.076293945,-0.0686645505,163.5,-153.29999999999998,-62.699999999999996,56576
-0.02031019202363368,0.03197925669835782,1.0046756983575111,0.0839233395,0.0534057615,-0.076293945,153.9,-155.7,-63.9,56863
-0.01981782373215165,0.03358439313495493,1.0071933820884786,0.0381469725,0.061035156,-0.030517578,161.1,-155.7,-63.9,57149
-0.02031019202363368,0.02963328806025435,1.0088718379091237,0.045776367,0.091552734,-0.030517578,158.7,-158.1,-63.3,57435
-0.02141802067946824,0.02802815162365724,1.0068337129840548,0.061035156,0.1296997065,0.015258789,158.7,-155.7,-62.699999999999996,57720
-0.019448547513540127,0.030868008396098285,1.0052751468648844,-0.0991821285,0.0991821285,0.0,153.9,-155.7,-63.3,58007
-0.019940915805022157,0.032473144832695394,1.0053950365663589,-0.091552734,-0.0076293945,-0.030517578,156.29999999999998,-155.7,-64.5,58291
-0.0206794682422452,0.03185578466477343,1.0086320585061743,0.0076293945,0.0228881835,0.0,156.29999999999998,-153.29999999999998,-62.699999999999996,58578
-0.021048744460856722,0.032843560933448576,1.007792830595852,0.0991821285,0.0839233395,0.015258789,158.7,-153.29999999999998,-63.3,58864
-0.020802560315115706,0.031361896530435855,1.0058745953722574,-0.045776367,0.015258789,-0.0839233395,161.1,-153.29999999999998,-63.9,59150
-0.021541112752338748,0.03037412026176071,1.0085121688046996,0.0534057615,0.061035156,0.0,161.1,-158.1,-62.099999999999994,59435
-0.02031019202363368,0.031238424496851463,1.0074331614914278,-0.0076293945,0.122070312,0.0228881835,153.9,-153.29999999999998,-63.3,59722
-0.02018709995076317,0.03272008889986418,1.0062342644766815,0.0839233395,0.183105468,0.015258789,156.29999999999998,-155.7,-64.5,60008
-0.02141802067946824,0.03025064822817632,1.0061143747752068,0.0381469725,0.0991821285,-0.045776367,158.7,-158.1,-64.5,60294
-0.019448547513540127,0.03173231263118904,1.0079127202973264,0.045776367,0.122070312,0.0,158.7,-155.7,-63.9,60580
-0.022648941408173313,0.033707865168539325,1.0076729408943772,0.045776367,0.0228881835,-0.0076293945,158.7,-158.1,-62.699999999999996,60865
-0.0224027572624323,0.03222620076552661,1.0079127202973264,0.0839233395,0.045776367,-0.1144409175,156.29999999999998,-153.29999999999998,-63.9,61151
-0.02141802067946824,0.03111495246326707,1.007073492387004,0.1296997065,0.0534057615,-0.061035156,163.5,-150.9,-62.099999999999994,61437
-0.019694731659281144,0.029880232127423138,1.00671382328258,-0.045776367,0.0381469725,-0.0076293945,163.5,-158.1,-63.3,61722
-0.01981782373215165,0.030621064328929498,1.0081524997002758,-0.0228881835,0.015258789,-0.0686645505,161.1,-150.9,-63.9,62009
-0.022156573116691284,0.032843560933448576,1.0064740438796307,0.0381469725,0.0381469725,-0.0076293945,161.1,-158.1,-63.9,62294
-0.020433284096504186,0.030991480429682677,1.0051552571634097,0.030517578,0.1144409175,-0.0076293945,158.7,-153.29999999999998,-63.9,62580
-0.02018709995076317,0.03333744906778615,1.0053950365663589,0.0534057615,0.1296997065,-0.0534057615,161.1,-155.7,-62.699999999999996,62865
-0.01981782373215165,0.03173231263118904,1.0062342644766815,0.1144409175,0.0839233395,-0.045776367,161.1,-155.7,-62.699999999999996,63152
-0.019694731659281144,0.029880232127423138,1.005035367461935,-0.015258789,0.030517578,-0.045776367,161.1,-153.29999999999998,-63.3,63437
-0.019202363367799114,0.03272008889986418,1.0079127202973264,0.0228881835,0.0839233395,-0.0686645505,163.5,-155.7,-63.9,63726
-0.020925652387986212,0.03197925669835782,1.0031171322383408,0.0991821285,0.076293945,-0.045776367,153.9,-153.29999999999998,-63.3,64011
-0.020433284096504186,0.030003704161007533,1.0051552571634097,0.0381469725,-0.0076293945,0.0,158.7,-150.9,-64.5,64297
-0.020925652387986212,0.030868008396098285,1.0038364704471885,-0.0534057615,0.045776367,-0.0534057615,158.7,-153.29999999999998,-62.699999999999996,64582
-0.020064007877892663,0.030127176194591924,1.005035367461935,0.0381469725,0.1602172845,0.030517578,163.5,-155.7,-62.099999999999994,64869
-0.01932545544066962,0.032349672799111,1.0052751468648844,0.0534057615,0.061035156,0.0076293945,156.29999999999998,-158.1,-64.5,65155
-0.021541112752338748,0.03210272873194221,1.0055149262678336,0.015258789,0.091552734,-0.0686645505,163.5,-153.29999999999998,-62.099999999999994,65441
-0.020802560315115706,0.030003704161007533,1.0061143747752068,0.061035156,0.1144409175,0.030517578,165.9,-155.7,-62.699999999999996,65727
-0.020556376169374693,0.03037412026176071,1.0071933820884786,0.0,0.0991821285,-0.015258789,158.7,-150.9,-63.3,66013
-0.018340718857705565,0.032349672799111,1.00671382328258,-0.0076293945,0.045776367,-0.061035156,163.5,-148.5,-64.5,66298
-0.0189561792220581,0.032843560933448576,1.0041961395516126,0.0228881835,0.061035156,-0.061035156,165.9,-150.9,-62.699999999999996,66585
-0.019694731659281144,0.03148536856402025,1.005754705670783,0.061035156,0.1449584955,-0.061035156,161.1,-153.29999999999998,-63.9,66870
-0.02117183653372723,0.031238424496851463,1.0046756983575111,-0.137329101,0.076293945,-0.030517578,161.1,-158.1,-63.3,67158
-0.020556376169374693,0.03074453636251389,1.0047955880589858,-0.076293945,0.061035156,0.0,165.9,-160.5,-61.5,67444
-0.019694731659281144,0.03074453636251389,1.0071933820884786,-0.0076293945,0.030517578,-0.0228881835,153.9,-158.1,-64.5,67730
-0.01981782373215165,0.032349672799111,1.0046756983575111,0.015258789,0.061035156,-0.061035156,158.7,-158.1,-63.9,68015
-0.01932545544066962,0.03173231263118904,1.005035367461935,-0.0228881835,0.106811523,-0.061035156,156.29999999999998,-155.7,-62.099999999999994,68301
-0.02191038897095027,0.03025064822817632,1.006354154178156,0.0686645505,0.076293945,-0.0228881835,156.29999999999998,-160.5,-65.1,68587
-0.019694731659281144,0.030621064328929498,1.0058745953722574,0.0,0.1296997065,-0.0076293945,163.5,-160.5,-64.5,68873
-0.021541112752338748,0.03111495246326707,1.0040762498501379,0.0,0.0839233395,-0.0228881835,161.1,-155.7,-63.9,69158
-0.018340718857705565,0.030991480429682677,1.0051552571634097,0.030517578,0.0534057615,0.045776367,156.29999999999998,-160.5,-62.699999999999996,69444
-0.01883308714918759,0.03148536856402025,1.0076729408943772,-0.0534057615,0.0381469725,-0.015258789,158.7,-153.29999999999998,-61.5,69733
-0.019940915805022157,0.03296703296703297,1.0062342644766815,0.0534057615,0.137329101,-0.0228881835,161.1,-160.5,-63.9,70019
-0.019694731659281144,0.030497592295345103,1.0047955880589858,0.0991821285,0.061035156,-0.0228881835,156.29999999999998,-158.1,-63.3,70305
-0.020802560315115706,0.031608840597604645,1.00671382328258,0.0381469725,0.0076293945,-0.0228881835,158.7,-153.29999999999998,-63.9,70592
-0.020064007877892663,0.033707865168539325,1.0051552571634097,0.0076293945,0.0534057615,0.015258789,153.9,-158.1,-63.3,70877
-0.02117183653372723,0.03321397703420175,1.0056348159693083,-0.0228881835,0.0228881835,-0.076293945,161.1,-153.29999999999998,-63.3,71163
-0.020556376169374693,0.03185578466477343,1.0069536026855292,-0.0228881835,0.1602172845,0.0,158.7,-158.1,-62.699999999999996,71449
-0.0206794682422452,0.032349672799111,1.0074331614914278,-0.0228881835,0.045776367,-0.091552734,163.5,-150.9,-64.5,71736
-0.019694731659281144,0.029756760093838746,1.0059944850737321,-0.045776367,0.0534057615,-0.061035156,158.7,-155.7,-63.9,72021
-0.02018709995076317,0.031361896530435855,1.0069536026855292,-0.0076293945,0.0228881835,-0.030517578,153.9,-162.9,-63.9,72309
-0.020556376169374693,0.031361896530435855,1.0079127202973264,-0.0228881835,0.0839233395,-0.045776367,161.1,-160.5,-63.3,72596
-0.021664204825209258,0.03173231263118904,1.0068337129840548,-0.045776367,0.030517578,0.061035156,161.1,-158.1,-63.9,72883
-0.02326440177252585,0.031238424496851463,1.0056348159693083,-0.076293945,0.0839233395,0.0,158.7,-155.7,-65.1,73168
-0.020925652387986212,0.032596616866279786,1.0058745953722574,0.0,0.0381469725,0.0076293945,168.29999999999998,-153.29999999999998,-64.5,73456
-0.0189561792220581,0.031361896530435855,1.0055149262678336,0.015258789,0.030517578,-0.106811523,161.1,-155.7,-62.699999999999996,73742
-0.01883308714918759,0.032843560933448576,1.0065939335811054,-0.091552734,0.045776367,-0.030517578,158.7,-150.9,-65.1,74029
-0.02031019202363368,0.031608840597604645,1.0073132717899533,-0.0534057615,0.091552734,-0.0228881835,161.1,-158.1,-63.9,74314
-0.02031019202363368,0.03272008889986418,1.0081524997002758,-0.0076293945,0.091552734,0.0,161.1,-158.1,-63.3,74602
-0.020556376169374693,0.03346092110137054,1.005754705670783,0.0991821285,0.0686645505,-0.030517578,161.1,-158.1,-63.9,74889
-0.023510585918266862,0.03222620076552661,1.005035367461935,0.0228881835,0.0534057615,-0.045776367,158.7,-155.7,-63.3,75177
-0.02141802067946824,0.03148536856402025,1.006354154178156,0.0686645505,0.0839233395,-0.045776367,161.1,-155.7,-64.5,75462
-0.018586903003446578,0.03210272873194221,1.007073492387004,0.15258789,0.137329101,-0.1449584955,161.1,-150.9,-63.9,75749
-0.020925652387986212,0.03173231263118904,1.0076729408943772,0.061035156,0.1144409175,0.0,158.7,-153.29999999999998,-62.099999999999994,76034
-0.019940915805022157,0.03074453636251389,1.004316029253087,-0.0228881835,0.061035156,-0.045776367,158.7,-155.7,-63.9,76320
-0.019079271294928608,0.03173231263118904,1.0047955880589858,0.0076293945,0.076293945,-0.0076293945,163.5,-155.7,-60.9,76606
-0.022279665189561794,0.03321397703420175,1.005035367461935,0.0381469725,0.106811523,-0.061035156,158.7,-160.5,-62.099999999999994,76892
-0.021787296898079764,0.031608840597604645,1.0039563601486632,0.0839233395,0.045776367,-0.030517578,158.7,-160.5,-63.3,77179
-0.021048744460856722,0.031361896530435855,1.0062342644766815,0.0381469725,0.030517578,-0.015258789,161.1,-155.7,-63.9,77466
-0.019202363367799114,0.03333744906778615,1.0068337129840548,0.030517578,0.0534057615,0.045776367,153.9,-153.29999999999998,-64.5,77753
-0.020802560315115706,0.030497592295345103,1.0053950365663589,0.045776367,0.1144409175,0.0,158.7,-150.9,-63.9,78039
-0.019940915805022157,0.03185578466477343,1.0055149262678336,0.030517578,0.1602172845,-0.030517578,158.7,-150.9,-63.9,78324
-0.018709995076317085,0.03185578466477343,1.004316029253087,-0.015258789,0.1144409175,-0.0534057615,158.7,-158.1,-63.9,78610
-0.02018709995076317,0.029386343993085567,1.0045558086560364,-0.015258789,0.15258789,-0.0228881835,163.5,-158.1,-63.9,78895
-0.022033481043820777,0.03074453636251389,1.0074331614914278,-0.015258789,0.076293945,-0.0076293945,161.1,-153.29999999999998,-62.099999999999994,79183
-0.02031019202363368,0.029386343993085567,1.00671382328258,0.0228881835,0.0686645505,0.0534057615,156.29999999999998,-158.1,-63.3,79469
-0.020802560315115706,0.031608840597604645,1.0059944850737321,0.0228881835,0.030517578,0.0839233395,158.7,-158.1,-64.5,79757
-0.021048744460856722,0.032596616866279786,1.0047955880589858,0.0,-0.0228881835,-0.0839233395,153.9,-160.5,-63.9,80043
-0.01932545544066962,0.03210272873194221,1.0047955880589858,0.0076293945,0.0534057615,-0.0076293945,163.5,-158.1,-63.9,80329
-0.019448547513540127,0.031238424496851463,1.0046756983575111,0.030517578,0.0534057615,0.0076293945,161.1,-155.7,-61.5,80614
-0.02018709995076317,0.030991480429682677,1.0053950365663589,0.0534057615,0.015258789,-0.015258789,156.29999999999998,-155.7,-62.099999999999994,80900
-0.021294928606597735,0.032473144832695394,1.0047955880589858,0.0534057615,0.045776367,0.0,156.29999999999998,-155.7,-65.1,81186
-0.01772525849335303,0.03296703296703297,1.0059944850737321,-0.0534057615,0.1296997065,-0.061035156,158.7,-155.7,-63.9,81472
-0.021294928606597735,0.03346092110137054,1.00671382328258,-0.076293945,0.0686645505,-0.0228881835,153.9,-153.29999999999998,-63.9,81759
-0.021664204825209258,0.03309050500061736,1.0062342644766815,-0.106811523,0.0839233395,-0.0228881835,156.29999999999998,-160.5,-63.9,82046
-0.02031019202363368,0.033954809235708115,1.0062342644766815,0.030517578,0.0991821285,-0.045776367,156.29999999999998,-153.29999999999998,-63.9,82333
-0.019079271294928608,0.030621064328929498,1.0068337129840548,0.0534057615,-0.0076293945,-0.0076293945,163.5,-153.29999999999998,-61.5,82621
-0.019448547513540127,0.030497592295345103,1.007073492387004,0.015258789,0.0228881835,-0.0076293945,165.9,-158.1,-63.3,82907
-0.02031019202363368,0.032473144832695394,1.0021580146265436,0.061035156,0.061035156,-0.030517578,163.5,-158.1,-63.9,83193
-0.021048744460856722,0.030621064328929498,1.0039563601486632,0.0991821285,0.076293945,-0.045776367,158.7,-155.7,-62.699999999999996,83478
-0.022648941408173313,0.03111495246326707,1.0040762498501379,0.0381469725,0.0381469725,0.015258789,158.7,-150.9,-63.9,83765
-0.021294928606597735,0.031361896530435855,1.0038364704471885,0.0,0.1449584955,0.0,158.7,-158.1,-62.699999999999996,84050
-0.019448547513540127,0.03197925669835782,1.006354154178156,-0.0839233395,0.0991821285,-0.030517578,161.1,-160.5,-63.3,84336
-0.021294928606597735,0.03272008889986418,1.0076729408943772,-0.0991821285,0.0686645505,-0.0381469725,153.9,-158.1,-65.7,84621
-0.01883308714918759,0.031608840597604645,1.0085121688046996,0.0839233395,0.015258789,0.0381469725,158.7,-155.7,-64.5,84909
-0.019694731659281144,0.03173231263118904,1.0053950365663589,0.0534057615,0.0839233395,-0.0076293945,165.9,-150.9,-63.3,85194
-0.021541112752338748,0.03210272873194221,1.0051552571634097,0.0381469725,0.076293945,-0.0381469725,156.29999999999998,-160.5,-63.9,85481
-0.02191038897095027,0.030868008396098285,1.00671382328258,0.030517578,-0.0076293945,-0.0076293945,158.7,-150.9,-66.89999999999999,85766
-0.0206794682422452,0.031361896530435855,1.0075530511929025,0.1144409175,0.0534057615,0.0381469725,158.7,-158.1,-62.099999999999994,86053
-0.020433284096504186,0.03210272873194221,1.0051552571634097,-0.0076293945,0.076293945,0.0381469725,161.1,-158.1,-63.3,86339
-0.021048744460856722,0.030497592295345103,1.004316029253087,0.0,0.061035156,-0.0381469725,158.7,-153.29999999999998,-61.5,86625
-0.020064007877892663,0.031238424496851463,1.0062342644766815,0.045776367,0.0534057615,0.0228881835,165.9,-155.7,-63.3,86910
-0.018586903003446578,0.032843560933448576,1.0079127202973264,-0.045776367,0.0686645505,-0.0534057615,153.9,-155.7,-64.5,87196
-0.020064007877892663,0.03148536856402025,1.0073132717899533,0.015258789,0.1449584955,-0.0076293945,156.29999999999998,-155.7,-63.9,87482
-0.019571639586410634,0.031608840597604645,1.0049154777604603,0.0,0.0686645505,0.030517578,156.29999999999998,-153.29999999999998,-63.9,87769
-0.019940915805022157,0.03210272873194221,1.0052751468648844,-0.015258789,0.15258789,-0.0381469725,153.9,-150.9,-63.9,88056
-0.01846381093057607,0.032473144832695394,1.0064740438796307,0.061035156,0.0228881835,0.030517578,156.29999999999998,-150.9,-63.3,88341
-0.01883308714918759,0.032349672799111,1.0052751468648844,-0.0991821285,0.045776367,0.045776367,163.5,-150.9,-64.5,88627
-0.019694731659281144,0.032843560933448576,1.006354154178156,-0.0076293945,0.0228881835,0.0381469725,165.9,-158.1,-63.9,88914
-0.02117183653372723,0.03346092110137054,1.0039563601486632,-0.045776367,0.061035156,0.0228881835,161.1,-155.7,-64.5,89200
-0.0189561792220581,0.032473144832695394,1.0031171322383408,0.015258789,0.091552734,-0.0991821285,158.7,-155.7,-66.3,89486
-0.01846381093057607,0.032596616866279786,1.0069536026855292,0.061035156,0.1296997065,-0.061035156,168.29999999999998,-150.9,-62.699999999999996,89771
-0.020064007877892663,0.031608840597604645,1.0058745953722574,-0.0228881835,0.1144409175,-0.045776367,158.7,-160.5,-63.9,90061
-0.019571639586410634,0.031608840597604645,1.0059944850737321,-0.0228881835,0.0381469725,-0.0839233395,151.5,-155.7,-62.699999999999996,90346
-0.020556376169374693,0.033707865168539325,1.0041961395516126,-0.030517578,0.061035156,0.030517578,156.29999999999998,-155.7,-62.699999999999996,90635
-0.01809453471196455,0.033954809235708115,1.0047955880589858,0.0076293945,0.15258789,0.030517578,161.1,-153.29999999999998,-62.699999999999996,90921
-0.019694731659281144,0.03506605753796765,1.0053950365663589,0.1144409175,0.0534057615,0.061035156,161.1,-155.7,-64.5,91210
-0.02117183653372723,0.031238424496851463,1.006354154178156,0.076293945,0.045776367,-0.0228881835,161.1,-158.1,-63.9,91495
-0.021048744460856722,0.032349672799111,1.0073132717899533,-0.0381469725,0.076293945,-0.030517578,161.1,-158.1,-64.5,91781
-0.020556376169374693,0.031361896530435855,1.0032370219398155,-0.0686645505,0.076293945,0.015258789,161.1,-160.5,-63.9,92067
-0.02031019202363368,0.03173231263118904,1.0038364704471885,-0.0534057615,0.061035156,0.030517578,161.1,-158.1,-63.3,92354
-0.0189561792220581,0.03025064822817632,1.0059944850737321,-0.0228881835,0.045776367,0.0534057615,161.1,-155.7,-63.3,92641
-0.02031019202363368,0.032473144832695394,1.007073492387004,0.0076293945,0.0381469725,-0.030517578,163.5,-153.29999999999998,-65.1,92928
-0.019694731659281144,0.032349672799111,1.0052751468648844,-0.0228881835,0.1144409175,0.091552734,163.5,-158.1,-63.3,93213
-0.01846381093057607,0.032349672799111,1.002757463133917,0.0839233395,0.091552734,-0.0381469725,163.5,-158.1,-63.9,93499
-0.020925652387986212,0.030991480429682677,1.0073132717899533,0.045776367,0.076293945,0.0076293945,156.29999999999998,-158.1,-63.9,93785
-0.022156573116691284,0.03346092110137054,1.0064740438796307,0.0228881835,0.0534057615,0.0228881835,156.29999999999998,-158.1,-63.3,94072
-0.0206794682422452,0.031238424496851463,1.0065939335811054,0.061035156,0.0381469725,-0.045776367,163.5,-155.7,-63.3,94357
-0.021787296898079764,0.030127176194591924,1.0071933820884786,0.0991821285,0.045776367,-0.030517578,161.1,-155.7,-64.5,94643
-0.019940915805022157,0.031361896530435855,1.005754705670783,0.0,0.0686645505,0.0076293945,156.29999999999998,-158.1,-63.9,94928
-0.020556376169374693,0.030991480429682677,1.0055149262678336,0.015258789,0.076293945,-0.0381469725,163.5,-153.29999999999998,-64.5,95217
-0.019202363367799114,0.030868008396098285,1.008392279103225,0.0534057615,0.106811523,0.015258789,153.9,-153.29999999999998,-62.699999999999996,95503
-0.02018709995076317,0.03074453636251389,1.0056348159693083,0.015258789,0.045776367,-0.106811523,163.5,-150.9,-61.5,95790
-0.021294928606597735,0.032596616866279786,1.0056348159693083,0.076293945,0.045776367,-0.0228881835,158.7,-155.7,-61.5,96075
-0.01932545544066962,0.032596616866279786,1.005754705670783,-0.0534057615,0.0076293945,-0.0686645505,165.9,-158.1,-64.5,96362
-0.020433284096504186,0.032843560933448576,1.005754705670783,0.0534057615,0.0686645505,-0.0686645505,158.7,-160.5,-63.3,96647
-0.020433284096504186,0.03111495246326707,1.0068337129840548,0.061035156,0.076293945,-0.045776367,156.29999999999998,-158.1,-62.099999999999994,96934
-0.021048744460856722,0.031238424496851463,1.003716580745714,-0.0228881835,0.15258789,-0.0534057615,158.7,-153.29999999999998,-64.5,97221
-0.018586903003446578,0.03173231263118904,1.0046756983575111,-0.0228881835,0.030517578,-0.030517578,165.9,-160.5,-62.699999999999996,97507
-0.019571639586410634,0.032596616866279786,1.0092315070135476,-0.030517578,0.0991821285,-0.0228881835,165.9,-155.7,-63.3,97795
-0.020802560315115706,0.03272008889986418,1.0075530511929025,-0.015258789,0.030517578,-0.0686645505,156.29999999999998,-162.9,-64.5,98082
-0.019940915805022157,0.030621064328929498,1.0076729408943772,0.0686645505,0.045776367,-0.0534057615,165.9,-150.9,-63.3,98368
-0.020064007877892663,0.03197925669835782,1.0061143747752068,-0.0228881835,0.0839233395,-0.045776367,163.5,-158.1,-63.3,98654
-0.019571639586410634,0.03333744906778615,1.0046756983575111,0.076293945,0.106811523,-0.1296997065,165.9,-155.7,-63.9,98939
-0.01932545544066962,0.031608840597604645,1.0079127202973264,0.1602172845,0.1296997065,-0.122070312,163.5,-165.29999999999998,-62.699999999999996,99226
-0.0206794682422452,0.030991480429682677,1.0079127202973264,0.0228881835,0.137329101,-0.0228881835,161.1,-158.1,-63.9,99513
-0.019079271294928608,0.030991480429682677,1.0065939335811054,-0.045776367,-0.0381469725,-0.0534057615,153.9,-150.9,-63.3,99800
-0.017479074347612013,0.032473144832695394,1.0055149262678336,0.061035156,0.030517578,0.0076293945,163.5,-150.9,-64.5,100085
-0.0206794682422452,0.03185578466477343,1.0046756983575111,0.0991821285,0.045776367,0.045776367,151.5,-153.29999999999998,-63.3,100372
-0.02141802067946824,0.032473144832695394,1.0068337129840548,-0.015258789,0.030517578,-0.030517578,158.7,-153.29999999999998,-63.9,100658
-0.019571639586410634,0.03222620076552661,1.0075530511929025,0.0228881835,0.045776367,-0.0076293945,163.5,-158.1,-63.3,100945
-0.021541112752338748,0.031238424496851463,1.0059944850737321,0.030517578,0.0076293945,-0.0686645505,158.7,-158.1,-62.699999999999996,101230
-0.021294928606597735,0.029756760093838746,1.0041961395516126,0.015258789,0.0534057615,-0.0076293945,161.1,-162.9,-63.3,101517
-0.018709995076317085,0.03074453636251389,1.0056348159693083,-0.030517578,0.1144409175,-0.015258789,161.1,-155.7,-64.5,101802
-0.018340718857705565,0.031238424496851463,1.0053950365663589,-0.0839233395,0.137329101,-0.0228881835,156.29999999999998,-153.29999999999998,-62.099999999999994,102088
-0.019202363367799114,0.03309050500061736,1.007792830595852,0.045776367,0.0686645505,-0.0534057615,161.1,-150.9,-65.1,102374
-0.019571639586410634,0.030868008396098285,1.008751948207649,0.0076293945,-0.015258789,-0.0076293945,156.29999999999998,-155.7,-62.699999999999996,102661
-0.020064007877892663,0.03173231263118904,1.0075530511929025,-0.0228881835,0.045776367,-0.1144409175,156.29999999999998,-150.9,-63.3,102948
-0.020064007877892663,0.031608840597604645,1.008392279103225,0.015258789,0.061035156,-0.1449584955,158.7,-150.9,-62.699999999999996,103235
-0.019571639586410634,0.032349672799111,1.0094712864164967,0.0,0.061035156,-0.030517578,156.29999999999998,-155.7,-64.5,103521
-0.021664204825209258,0.031608840597604645,1.0088718379091237,0.061035156,0.061035156,-0.061035156,158.7,-150.9,-62.099999999999994,103807
-0.022156573116691284,0.03173231263118904,1.00671382328258,0.0381469725,-0.0076293945,-0.076293945,158.7,-158.1,-61.5,104093
-0.02031019202363368,0.031608840597604645,1.0053950365663589,0.0991821285,0.061035156,-0.0534057615,156.29999999999998,-153.29999999999998,-63.3,104379
-0.02018709995076317,0.03197925669835782,1.0061143747752068,0.0534057615,0.061035156,-0.045776367,156.29999999999998,-155.7,-64.5,104665
-0.02018709995076317,0.03111495246326707,1.0064740438796307,-0.030517578,0.0,-0.0381469725,163.5,-155.7,-63.9,104952
-0.0206794682422452,0.030127176194591924,1.0094712864164967,0.0534057615,0.015258789,0.030517578,153.9,-150.9,-62.699999999999996,105239
-0.020556376169374693,0.031608840597604645,1.0062342644766815,-0.091552734,0.0076293945,-0.045776367,163.5,-153.29999999999998,-63.3,105527
-0.020802560315115706,0.03148536856402025,1.005754705670783,-0.0534057615,0.0839233395,-0.0991821285,165.9,-158.1,-63.3,105813
-0.02191038897095027,0.032843560933448576,1.007073492387004,0.1449584955,0.0534057615,0.0534057615,156.29999999999998,-158.1,-64.5,106099
-0.020433284096504186,0.032349672799111,1.008392279103225,0.076293945,0.091552734,0.0534057615,158.7,-155.7,-63.3,106384
-0.01981782373215165,0.03025064822817632,1.0075530511929025,-0.0991821285,0.030517578,0.0,158.7,-160.5,-63.9,106671
-0.01846381093057607,0.032473144832695394,1.0089917276105982,-0.061035156,0.0381469725,-0.0534057615,158.7,-155.7,-63.3,106957
-0.01883308714918759,0.03358439313495493,1.0062342644766815,0.091552734,-0.030517578,-0.0076293945,158.7,-150.9,-62.699999999999996,107243
-0.020556376169374693,0.030868008396098285,1.0088718379091237,-0.106811523,0.0534057615,-0.091552734,158.7,-155.7,-63.9,107528
-0.019694731659281144,0.03296703296703297,1.0062342644766815,0.030517578,0.0991821285,-0.015258789,156.29999999999998,-158.1,-62.099999999999994,107817
-0.018586903003446578,0.03333744906778615,1.005754705670783,0.106811523,0.091552734,0.0228881835,161.1,-153.29999999999998,-63.3,108106
-0.018217626784835055,0.03197925669835782,1.0071933820884786,-0.0228881835,0.0991821285,-0.0228881835,158.7,-155.7,-62.699999999999996,108393
-0.021048744460856722,0.03210272873194221,1.0065939335811054,-0.0381469725,0.1296997065,-0.0381469725,161.1,-150.9,-63.3,108679
-0.021664204825209258,0.030991480429682677,1.0101906246253447,0.015258789,0.061035156,-0.045776367,163.5,-155.7,-62.699999999999996,108965
-0.02018709995076317,0.03321397703420175,1.0082723894017505,-0.0228881835,0.076293945,-0.030517578,163.5,-153.29999999999998,-63.9,109251
-0.019940915805022157,0.032843560933448576,1.0071933820884786,0.076293945,0.1449584955,0.0381469725,161.1,-155.7,-63.3,109537
-0.01760216642048252,0.03173231263118904,1.0075530511929025,0.045776367,0.106811523,-0.0228881835,156.29999999999998,-153.29999999999998,-61.5,109823
-0.02031019202363368,0.03074453636251389,1.0081524997002758,0.0076293945,0.122070312,-0.0839233395,165.9,-153.29999999999998,-62.099999999999994,110109
-0.02117183653372723,0.029756760093838746,1.0073132717899533,-0.030517578,0.0228881835,0.030517578,156.29999999999998,-153.29999999999998,-63.3,110397
-0.020556376169374693,0.03074453636251389,1.0093513967150223,-0.030517578,0.076293945,0.0,163.5,-158.1,-63.3,110684
-0.020556376169374693,0.031608840597604645,1.0061143747752068,0.1296997065,0.0686645505,-0.045776367,163.5,-160.5,-63.3,110970
-0.01981782373215165,0.03309050500061736,1.005754705670783,0.106811523,0.0228881835,-0.0991821285,163.5,-153.29999999999998,-63.9,111256
-0.021664204825209258,0.03309050500061736,1.0074331614914278,-0.0228881835,0.045776367,-0.0381469725,158.7,-160.5,-63.3,111542
-0.0206794682422452,0.03272008889986418,1.0086320585061743,-0.015258789,0.061035156,0.076293945,158.7,-155.7,-63.9,111828
-0.031634662727720336,0.02358315841461909,1.0064740438796307,0.0,0.122070312,-0.0228881835,156.29999999999998,-153.29999999999998,-63.9,112113
0.0072624322993599215,0.0485245091986665,1.0116293010430404,-0.122070312,0.0,-0.0381469725,158.7,-158.1,-62.699999999999996,112399
-0.042712949286065977,0.0342017533028769,1.0071933820884786,0.228881835,0.396728514,-0.991821285,163.5,-155.7,-62.099999999999994,112685
-0.0072624322993599215,0.019508581306334115,1.008392279103225,-0.1296997065,-0.0686645505,0.198364257,158.7,-158.1,-63.3,112973
-0.011447562776957163,0.024694406716878628,1.0044359189545617,0.045776367,0.427246092,-0.1907348625,158.7,-155.7,-62.099999999999994,113259
-0.042712949286065977,0.051364365971107544,1.0062342644766815,0.137329101,0.3280639635,-0.7858276335,158.7,-158.1,-62.699999999999996,113546
-0.013540128015755786,0.025682182985553772,1.0049154777604603,-0.0076293945,-0.167846679,-0.4501342755,158.7,-158.1,-63.3,113831
-0.021664204825209258,0.02370663044820348,1.007792830595852,0.0991821285,0.106811523,-0.595092771,163.5,-158.1,-63.3,114119
-0.0310192023633678,0.03667119397456476,1.007792830595852,0.0381469725,-0.030517578,-0.9689331015,153.9,-150.9,-62.699999999999996,114404
0.004431314623338257,0.044696876157550317,1.0093513967150223,-0.0534057615,-0.1449584955,-0.9536743125,156.29999999999998,-150.9,-63.3,114691
-0.028188084687346134,0.03432522533646129,1.008392279103225,-0.030517578,0.106811523,-0.381469725,165.9,-155.7,-63.3,114976
-0.03778926637124569,0.025682182985553772,1.0061143747752068,-0.2517700185,0.106811523,0.6027221655,153.9,-155.7,-62.699999999999996,115262
-0.014278680452978828,0.0395110507470058,1.0062342644766815,-0.1449584955,-0.091552734,0.671386716,165.9,-158.1,-62.699999999999996,115549
-0.017848350566223536,0.039634522780590195,1.0068337129840548,-0.122070312,-0.045776367,0.8010864225,158.7,-153.29999999999998,-64.5,115836
-0.01563269325455441,0.028522039757994815,1.0065939335811054,-0.045776367,-0.076293945,0.9994506795,161.1,-155.7,-62.699999999999996,116123
-0.021294928606597735,0.028768983825163602,1.0061143747752068,0.015258789,0.122070312,0.091552734,165.9,-155.7,-64.5,116409
-0.02708025603151157,0.024941350784047415,1.0091116173120729,-0.0228881835,0.167846679,-0.0991821285,163.5,-150.9,-62.699999999999996,116696
-0.02375677006400788,0.023089270280281515,1.0061143747752068,-0.0228881835,-0.0076293945,-0.1907348625,161.1,-148.5,-63.9,116983
-0.019202363367799114,0.03901716261266823,1.0074331614914278,0.198364257,0.549316404,-1.358032221,161.1,-153.29999999999998,-62.099999999999994,117269
-0.01760216642048252,0.041116187183602916,1.0069536026855292,0.335693358,0.640869138,-1.571655267,158.7,-153.29999999999998,-62.099999999999994,117556
-0.029911373707533235,0.045808124459809856,1.0052751468648844,0.274658202,0.427246092,-1.770019524,151.5,-158.1,-64.5,117844
-0.04025110782865583,0.03358439313495493,1.0051552571634097,0.2822875965,0.213623046,-1.403808588,158.7,-160.5,-62.099999999999994,118131
-0.029542097488921712,0.031238424496851463,1.004316029253087,0.686645505,0.320434569,-2.3422241115,161.1,-155.7,-62.099999999999994,118417
-0.03052683407188577,0.02284232621311273,1.0045558086560364,1.144409175,0.6942748995,-5.889892554,161.1,-155.7,-62.699999999999996,118704
-0.01464795667159035,0.024941350784047415,1.008032609998801,1.5182495055,0.9078979455,-9.9258422445,161.1,-155.7,-63.3,118989
-0.00258493353028065,0.022224966045190763,1.0099508452223953,1.2893676705,0.9231567345,-9.4375609965,163.5,-153.29999999999998,-63.9,119276
-0.021294928606597735,0.03444869737004568,1.0099508452223953,0.1449584955,0.534057615,-2.5558471575,153.9,-148.5,-64.5,119562
-0.04098966026587888,0.0592665761205087,1.0069536026855292,-0.244140624,0.1754760735,-0.2365112295,161.1,-155.7,-63.9,119849
-0.016986706056129987,0.051364365971107544,1.0071933820884786,-0.015258789,0.0991821285,0.0228881835,149.1,-158.1,-65.1,120134
-0.030773018217626784,0.023459686381034697,1.0056348159693083,0.3433227525,0.3890991195,-1.403808588,161.1,-150.9,-63.3,120423
-0.03249630723781388,0.02136066181010001,1.0064740438796307,0.1907348625,0.289916991,-1.205444331,153.9,-155.7,-62.699999999999996,120724
-0.009724273756770064,0.026669959254228916,1.0106701834312433,0.0686645505,0.0534057615,-0.823974606,163.5,-153.29999999999998,-62.099999999999994,121014
-0.0004923682914820286,0.03321397703420175,1.0113895216400912,-0.1296997065,-0.2822875965,-1.3961791935,168.29999999999998,-148.5,-65.7,121300
-0.02141802067946824,0.043462155821706386,1.0073132717899533,-0.1907348625,-0.2822875965,-0.671386716,161.1,-146.1,-63.3,121588
-0.02486459871984244,0.04877145326583529,1.0041961395516126,0.167846679,-0.3280639635,-1.7318725515,156.29999999999998,-160.5,-62.099999999999994,121873
-0.02843426883308715,0.041980491418693665,1.0040762498501379,0.5416870095,-0.1144409175,-2.532958974,161.1,-150.9,-62.699999999999996,122160
-0.04222058099458395,0.028768983825163602,1.0046756983575111,0.6027221655,0.198364257,-3.4713744975,161.1,-153.29999999999998,-63.3,122446
-0.022648941408173313,0.02247191011235955,1.0059944850737321,0.7400512665,0.4043579085,-4.9057006635,161.1,-158.1,-63.3,122735
0.025480059084194977,-0.0076552660822323745,1.0103105143268194,0.5874633765,0.4501342755,-4.3869018375,161.1,-160.5,-63.3,123021
0.01292466765140325,0.0003704161007531794,1.0069536026855292,-0.137329101,0.3280639635,0.976562496,161.1,-155.7,-63.9,123308
-0.011324470704086657,0.04148660328435609,1.0075530511929025,-0.839233395,-0.030517578,5.1193237095,165.9,-153.29999999999998,-62.699999999999996,123598
-0.026957163958641065,0.059883936288430674,1.0073132717899533,-0.9841918905,-0.061035156,5.8059692145,163.5,-158.1,-63.3,123887
-0.06474643032988675,0.04728978886282257,1.0055149262678336,-0.3128051745,-0.1754760735,4.043579085,161.1,-148.5,-64.5,124178
-0.0292959133431807,0.04519076429188789,1.0068337129840548,0.488281248,-0.045776367,-1.9302368085,165.9,-153.29999999999998,-63.3,124467
-0.025480059084194977,0.034819113470798864,1.005754705670783,1.007080074,0.5111694315,-5.4855346455,156.29999999999998,-155.7,-63.9,124755
-0.009724273756770064,0.015187060130880356,1.0079127202973264,1.083374019,0.3433227525,-6.5994262425,165.9,-160.5,-65.1,125046
0.007016248153618907,0.03037412026176071,1.0085121688046996,0.8468627895,0.259399413,-8.728027308,161.1,-153.29999999999998,-63.3,125336
-0.02535696701132447,0.047042844795653786,1.0079127202973264,0.595092771,0.4959106425,-9.00268551,165.9,-155.7,-62.699999999999996,125627
-0.02535696701132447,0.03037412026176071,1.0093513967150223,0.4501342755,0.6637573215,-8.0184936195,161.1,-150.9,-65.1,125914
-0.01637124569177745,0.030497592295345103,1.0064740438796307,0.396728514,0.5416870095,-8.560180629,161.1,-153.29999999999998,-62.099999999999994,126206
-0.020556376169374693,0.038770218545499446,1.0104304040282939,0.1449584955,0.5722045875,-7.93457028,165.9,-153.29999999999998,-63.9,126504
-0.029542097488921712,0.03543647363872083,1.008751948207649,0.137329101,0.6637573215,-9.1171264275,163.5,-153.29999999999998,-63.9,126795
-0.03421959625800099,0.02716384738856649,1.0062342644766815,0.244140624,0.823974606,-10.803222612,161.1,-155.7,-62.699999999999996,127085
-0.0086164451009355,0.03210272873194221,1.0068337129840548,0.1754760735,0.6637573215,-10.6735229055,165.9,-148.5,-63.3,127377
0.014771048744460856,0.04951228546734165,1.0129480877592614,-0.320434569,-0.183105468,-9.841918905,161.1,-150.9,-63.3,127665
-0.01932545544066962,0.019508581306334115,1.007792830595852,-0.3738403305,-0.213623046,-6.8130492885,165.9,-150.9,-64.5,127953
-0.032003938946331856,0.020743301642178046,1.007073492387004,-0.427246092,-0.167846679,-3.402709947,163.5,-150.9,-63.3,128245
-0.031142294436238307,0.07852821335967404,1.0065939335811054,0.1449584955,-0.4653930645,-7.873535124,163.5,-153.29999999999998,-63.9,128535
0.04948301329394387,0.11384121496481046,0.9851336770171443,0.137329101,-0.0228881835,-11.9094848145,170.7,-153.29999999999998,-62.699999999999996,128825
0.029049729197439686,0.10149401160637116,1.015825440594653,0.213623046,0.5722045875,-16.6854857715,165.9,-153.29999999999998,-63.3,129115
-0.006893156080748399,0.06679837016915668,1.0103105143268194,0.213623046,0.274658202,-19.470214764,173.1,-150.9,-62.099999999999994,129403
-0.02277203348104382,0.04593159649339425,1.010790073132718,0.244140624,0.4959106425,-17.608642506,165.9,-146.1,-61.5,129693
-0.06843919251600197,-0.019138165205580936,1.0061143747752068,0.5722045875,0.7400512665,-14.4119262105,165.9,-150.9,-64.5,129980
-0.04788281634662728,0.022965798246697124,1.008032609998801,0.946044918,0.900268551,-10.620117144,161.1,-148.5,-64.5,130270
-0.022895125553914326,0.09013458451660698,1.0097110658194461,2.1743774325,2.227783194,-8.1100463535,168.29999999999998,-150.9,-64.5,130557
0.05379123584441162,0.1384121496481047,0.9964033089557607,3.3493041855,3.448486314,-11.993408154,173.1,-150.9,-63.3,130845
0.07607090103397342,0.08939375231510063,1.00335691164129,0.9841918905,0.9994506795,-14.4577025775,170.7,-146.1,-63.9,131133
0.05896110290497292,0.08964069638226942,1.0021580146265436,-2.9525756715,-3.0441284055,-14.045715274500001,170.7,-153.29999999999998,-62.699999999999996,131423
0.09354997538158542,0.09951845906902086,1.0131878671622108,-6.591796848,-6.5994262425,-10.848998979,173.1,-150.9,-64.5,131711
0.06696208764155588,0.10223484380787752,1.0123486392518883,-3.3340453965,-2.960205066,-5.2413940215,170.7,-155.7,-63.3,132001
0.01883308714918759,0.15903197925669835,1.0110298525356671,-0.4653930645,1.2283325145,-2.0675659095,173.1,-148.5,-66.89999999999999,132288
0.01624815361890694,0.13248549203605384,0.9905287135835031,-1.0910034135,0.488281248,-6.5536498755,175.5,-150.9,-64.5,132579
-0.10450516986706056,0.06346462526237807,1.0193022419374176,0.4196166975,-0.946044918,-19.8364257,175.5,-150.9,-65.1,132867
-0.12186115214180207,0.06272379306087171,0.9568397074691284,1.06811523,-1.235961909,-22.949218656,175.5,-143.7,-65.1,133155
-0.08542589857213195,0.04506729225830349,0.9816568756743795,0.335693358,0.0076293945,-24.658203024,170.7,-148.5,-65.1,133443
-0.1086903003446578,0.05012964563526361,1.0139072053710587,0.473022459,1.8539428635,-24.169921776,177.9,-150.9,-65.7,133730
-0.06117676021664205,0.06247684899370293,1.0097110658194461,0.3433227525,1.8081664965,-20.6069945445,177.9,-146.1,-66.3,134019
-0.023510585918266862,0.0522286702061983,1.0291331974583384,-0.701904294,0.808715817,-16.296386652,173.1,-146.1,-68.7,134312
-0.025110782865583457,0.08445487097172491,1.0438796307397196,-6.0958862055,0.3128051745,-11.459350539,177.9,-150.9,-66.3,134600
-0.059084194977843424,0.10346956414372145,1.0254166167126244,-14.724731385,0.442504881,-6.5383910865,180.29999999999998,-148.5,-68.1,134888
-0.04234367306745446,0.07124336337819484,0.9995204411941014,-13.168334907,-1.7776489185,-0.808715817,182.7,-148.5,-66.89999999999999,135175
-0.014524864598719843,0.05321644647487344,1.0095911761179714,-11.657714796,-1.739501946,-0.7095336885,185.1,-143.7,-68.1,135465
-0.01563269325455441,0.023953574515372267,0.9934060664188946,-12.4435424295,0.7858276335,-2.532958974,177.9,-148.5,-68.1,135752
-0.026957163958641065,0.030991480429682677,0.979498861047836,-10.955810502,2.319335928,-6.546020481,180.29999999999998,-148.5,-66.89999999999999,136040
-0.024002954209748892,0.03333744906778615,0.9923270591056228,-8.6288451795,2.6931762585,-9.9716186115,180.29999999999998,-150.9,-68.1,136328
0.014894140817331364,-0.005309297444128905,1.0034768013427646,-4.5623779110000005,1.037597652,-13.5269164485,185.1,-148.5,-66.3,136617
0.038527818808468735,0.06729225830349427,1.0014386764176957,0.5569457985,-0.122070312,-18.15795891,182.7,-148.5,-68.7,136905
0.04062038404726736,0.07803432522533646,1.0055149262678336,1.2283325145,0.045776367,-18.76831047,189.9,-143.7,-69.3,137193
0.03483505662235352,0.06161254475861217,1.0074331614914278,3.0136108275,0.091552734,-13.2522582465,185.1,-148.5,-66.89999999999999,137480
0.010585918266863614,0.08000987776268675,0.9940055149262679,4.028320296,0.137329101,-12.695312448,187.5,-146.1,-69.3,137768
0.026095519448547513,0.07593530065440178,0.9868121328377892,7.4844360045,0.2212524405,-12.2756957505,189.9,-150.9,-68.7,138055
0.029419005416051205,0.07099641931102606,1.0038364704471885,12.1994018055,0.5264282205,-9.552001914,185.1,-158.1,-69.89999999999999,138343
0.006277695716395864,0.06976169897518213,0.9994005514926267,14.144897403,0.701904294,-6.3247680405,192.29999999999998,-158.1,-69.3,138630
0.01674052191038897,0.07988640572910236,1.030571873876034,13.7252807055,0.8010864225,-3.5476684425,192.29999999999998,-160.5,-69.89999999999999,138917
0.013047759724273756,0.07000864304235091,1.024217719697878,12.2146605945,2.166748038,-1.1215209915,194.7,-158.1,-69.3,139208
0.019940915805022157,0.07630571675515496,1.0352475722335452,10.8261107955,5.172729471,3.250122057,185.1,-155.7,-70.5,139495
-0.0027080256031511572,-0.03346092110137054,1.0184630140270952,-0.30517578,-4.837036113,10.2005004465,192.29999999999998,-158.1,-71.1,139783
-0.012801575578532743,-0.027534263489319668,1.0262558446229468,2.2354125885,-16.738891533,11.9247436035,187.5,-162.9,-71.7,140071
-0.032619399310684395,0.041980491418693665,1.0684570195420213,4.776000957,-22.0413207105,14.5492553115,185.1,-165.29999999999998,-71.7,140358
-0.07742491383554899,0.06284726509445611,1.054789593573912,3.723144516,-20.7290648565,15.4037474955,182.7,-162.9,-71.7,140647
-0.06659281142294436,0.09383874552413879,1.0606641889461694,6.6757201875,-18.341064378,10.238647419,180.29999999999998,-167.7,-72.3,140933
-0.048005908419497784,0.09741943449808618,1.0565879390960315,10.009765584,-11.8942260255,2.044677726,180.29999999999998,-177.29999999999998,-71.1,141222
-0.0379123584441162,0.09494999382639832,1.0327298885025775,13.488769476,-4.852294902,-6.8740844445,180.29999999999998,-170.1,-72.3,141509
-0.0396356474643033,0.08309667860229658,1.0106701834312433,15.014648376,-0.5264282205,-14.602661073,177.9,-170.1,-71.1,141799
0.010585918266863614,0.028522039757994815,0.9806977580625824,11.29150386,0.6332397435,-14.205932559,177.9,-174.9,-72.89999999999999,142086
0.0361890694239291,0.010124706753920238,0.9729049274667306,6.149291967,-0.7095336885,-9.5291137305,175.5,-172.5,-72.3,142374
0.028311176760216644,0.008149154216569946,0.9611557367222155,1.846313469,-3.5781860205,-3.799438461,175.5,-172.5,-71.7,142661
0.014894140817331364,0.026916903321397703,0.9671502217959477,-0.259399413,-7.080078096,1.5792846615,173.1,-174.9,-72.3,142951
-0.0038158542589857214,0.049018397333004074,0.969428126123966,-1.0147094685,-8.7356567025,5.9738158935,173.1,-179.7,-72.3,143238
0.0038158542589857214,0.06173601679219657,0.9778204052271909,0.183105468,-11.3906859885,7.8506469405,165.9,-177.29999999999998,-72.89999999999999,143525
0.018586903003446578,0.09223360908754168,0.9833353314950246,3.173828112,-14.144897403,5.2871703885,165.9,-186.9,-72.3,143813
0.0023387493845396356,0.11482899123348561,0.984893897614195,4.699707012,-14.9307250365,1.510620111,161.1,-184.5,-71.7,144103
-0.0292959133431807,0.0645758735646376,0.9514446709027694,7.720947234,-10.6811523,0.167846679,163.5,-184.5,-72.3,144391
-0.023633677991137372,0.026299543153475737,0.9591176117971466,9.6664428315,-8.682250941,1.9302368085,161.1,-189.29999999999998,-73.5,144681
-0.009354997538158542,-0.0011112483022595382,0.9782999640330896,7.965087858,-5.264282205,4.013061507,168.29999999999998,-191.7,-72.3,144967
-0.029172821270310192,-0.0033337449067786145,0.9883706989569596,2.838134754,-2.74658202,6.027221655,163.5,-191.7,-74.1,145256
-0.03914327917282127,0.029756760093838746,0.9958038604483875,-2.3574829005,-3.96728514,7.9727172525,158.7,-196.5,-73.5,145543
-0.024249138355489905,0.060871712557105814,1.0045558086560364,-6.5994262425,-5.401611306,8.5372924455,153.9,-191.7,-73.5,145831
-0.0310192023633678,0.08235584640079022,1.0136674259681093,-9.033203088,-3.860473617,9.5901488865,158.7,-194.1,-75.89999999999999,146118
-0.0155096011816839,0.08482528707247808,1.0025176837309675,-9.841918905,-2.243041983,10.6124877495,153.9,-201.29999999999998,-76.5,146409
0.023633677991137372,0.13816520558093592,1.071933820884786,-10.589599566,2.4490356345,10.604858355,156.29999999999998,-196.5,-74.1,146696
-0.048867552929591336,0.09050500061736017,0.9968828677616592,-18.9285277545,7.17163083,10.2310180245,156.29999999999998,-201.29999999999998,-73.5,146985
-0.01809453471196455,0.0025929127052722557,1.018103344922671,-16.448974542,4.8141479295,8.8882445925,158.7,-196.5,-74.1,147273
0.07188577055637617,0.18829485121619954,1.0368061383527154,-10.711669878,4.974365214,8.2473754545,149.1,-196.5,-72.89999999999999,147561
-0.01624815361890694,0.012594147425608099,1.0475962114854334,-8.39233395,5.1040649205,5.233764627,151.5,-203.7,-75.3,147848
-0.013540128015755786,-0.061118656624274605,1.0261359549214721,-6.896972628,2.853393543,1.541137689,153.9,-203.7,-73.5,148136
0.01674052191038897,-0.04482034819113471,1.0352475722335452,-4.6157836725,1.602172845,0.0991821285,151.5,-198.9,-73.5,148422
0.034588872476612506,0.015927892332386714,1.0321304399952045,-0.1907348625,2.883911121,1.235961909,153.9,-198.9,-73.5,148710
0.0878877400295421,0.1495246326707001,1.032609998801103,5.7296752695,1.754760735,5.9738158935,146.7,-201.29999999999998,-73.5,148997
0.02621861152141802,-0.03333744906778615,1.0388442632777843,11.611938429,2.3117065335,7.278442353,149.1,-203.7,-71.7,149286
0.0620384047267356,0.023953574515372267,1.0383647044718858,13.504028265,-2.090454093,-0.5416870095,144.29999999999998,-208.5,-71.7,149574
0.07976366322008863,0.04037535498209655,1.037645366263038,13.153076118,-6.027221655,-9.5443725195,146.7,-206.1,-73.5,149863
0.059945839487936976,0.04235090751944685,1.0407624985013788,9.9411010335,-5.3939819115,-13.8931273845,141.9,-198.9,-73.5,150149
0.0004923682914820286,0.027534263489319668,1.018822683131519,5.3482055445,-2.944946277,-14.602661073,149.1,-203.7,-73.5,150437
-0.017232890201871,0.02012594147425608,1.0045558086560364,4.2648315255,-2.6473998915,-10.765075639500001,149.1,-213.29999999999998,-73.5,150725
-0.004431314623338257,0.028892455858747994,0.998321544179355,4.4784545715,-2.2964477445,-6.9808959675,141.9,-213.29999999999998,-71.7,151013
-0.04357459379615953,0.03679466600814915,0.9833353314950246,0.183105468,3.3493041855,-1.8997192305,139.5,-208.5,-71.7,151301
-0.03225012309207287,0.04123965921718731,0.9893298165687567,-0.2059936515,5.4244994895,0.3280639635,137.1,-208.5,-72.89999999999999,151589
0.005785327424913836,0.0539572786763798,0.9912480517923511,0.869750973,7.034301729,0.2059936515,141.9,-206.1,-71.7,151879
0.02978828163466273,0.037288554142486725,0.9934060664188946,0.2212524405,6.3400268295,1.2588500925,139.5,-208.5,-71.1,152168
0.047021171836533725,0.013088035559945673,0.9925668385085721,-1.5792846615,1.3961791935,1.251220698,137.1,-210.9,-71.7,152455
0.043697685869030035,0.017533028768983824,0.9777005155257164,-2.502441396,-3.7460326995,0.61035156,137.1,-213.29999999999998,-72.3,152744
0.018217626784835055,0.034942585504383256,0.9755425008991727,-2.5100707905,-6.057739233,3.3035278185,134.7,-213.29999999999998,-72.89999999999999,153031
-0.0038158542589857214,0.050376589702432396,0.9864524637333653,-2.2811889555000002,-5.4702758565,5.5313110125,127.5,-208.5,-72.89999999999999,153320
-0.027203348104382078,0.029386343993085567,0.9856132358230428,-6.3705444075,0.3738403305,1.495361322,129.9,-210.9,-69.3,153609
-0.012801575578532743,0.026669959254228916,0.991607720896775,-7.400512665,2.1438598545,-2.8305053595,129.9,-210.9,-71.7,153897
-0.001600196947316593,0.023336214347450302,1.0038364704471885,-6.3095092515,3.1967162955,-5.79833982,127.5,-215.7,-72.89999999999999,154184
-0.01292466765140325,0.03790591431040869,1.0125884186548375,-3.829956039,3.7612914885,-5.8822631595,132.29999999999998,-201.29999999999998,-71.1,154472
0.011078286558345642,0.03938757871342141,1.0176237861167725,-4.028320296,1.541137689,-3.1967162955,137.1,-215.7,-72.3,154762
0.045667159034958146,0.02012594147425608,1.0031171322383408,-6.2637328845,-2.4795532125,-3.555297837,129.9,-208.5,-71.1,155050
0.05637616937469227,0.028892455858747994,0.9856132358230428,-4.2953491035,-6.347656224,-4.760742168,125.1,-213.29999999999998,-72.89999999999999,155376
0.023141309699655343,0.047907149030744535,1.01007073492387,1.6555786065,-7.125854463,1.7471313405,127.5,-208.5,-69.89999999999999,155670
0.001846381093057607,0.013828867761452032,1.0082723894017505,0.411987303,-4.898071269,0.3890991195,122.69999999999999,-210.9,-70.5,155958
-0.0292959133431807,0.010865538955426596,1.0069536026855292,-0.4043579085,-1.846313469,-2.3880004785,127.5,-206.1,-70.5,156247
-0.03409650418513048,0.025805655019138164,1.0065939335811054,-1.8844604415,1.6098022395,-3.326416002,120.3,-213.29999999999998,-69.89999999999999,156534
-0.02141802067946824,0.03296703296703297,1.0118690804459898,-3.9291381675,4.928588847,-3.784179672,125.1,-208.5,-69.3,156823
-0.00775480059084195,0.029880232127423138,1.0086320585061743,-2.7694702035,7.0571899125,-6.271362279,115.5,-208.5,-69.89999999999999,157111
0.012186115214180207,0.030868008396098285,1.011749190744515,-2.2811889555000002,7.049560518,-9.887695272,115.5,-208.5,-71.1,157401
0.019940915805022157,-0.011729843190517349,1.0059944850737321,-7.415771454,4.9667358195,-14.007568302,122.69999999999999,-208.5,-71.7,157688
0.035942885278188084,0.013334979627114458,0.991607720896775,-8.9492797485,-3.8986205895,-15.9378051105,127.5,-208.5,-70.5,157977
0.01624815361890694,0.027040375354982098,0.9896894856731807,-8.1710815095,-5.783081031,-13.137817329,122.69999999999999,-203.7,-69.3,158264
-0.02191038897095027,0.020619829608593654,0.9938856252247932,-6.5231322975,-4.4631957825,-9.0408324825,122.69999999999999,-208.5,-71.7,158553
-0.03348104382077794,0.004198049141869367,0.9940055149262679,-5.5465698015000005,-2.5863647355,-6.2942504625,117.89999999999999,-208.5,-69.89999999999999,158840
-0.03249630723781388,0.0,0.9932861767174199,-5.630493141,-0.747680661,-7.1029662795,120.3,-210.9,-71.7,159129
0.03286558345642541,-0.028151623657241633,1.0264956240258962,-7.400512665,1.098632808,-8.9950561155,120.3,-206.1,-69.89999999999999,159418
0.03003446578040374,-0.01061859488825781,1.0666586740199018,-3.50952147,11.428832961,-7.32421872,122.69999999999999,-206.1,-69.89999999999999,159707
-0.05502215657311669,0.09581429806148907,1.0103105143268194,2.3422241115,17.5857543225,-5.9432983155,120.3,-196.5,-69.3,159995
0.014155588380108322,0.046672428694900604,1.0261359549214721,-7.797241179,13.389587347500001,-14.892578064,117.89999999999999,-201.29999999999998,-70.5,160282
0.024372230428360415,0.03333744906778615,0.994604963433641,-8.514404262,11.1770629425,-20.416259682,125.1,-194.1,-68.7,160574
0.025972427375677006,0.06346462526237807,0.9961635295528114,-2.3422241115,8.056640592,-23.9486693355,117.89999999999999,-198.9,-70.5,160862
0.016863613983259477,0.03889369057908384,1.0034768013427646,0.442504881,7.3471069035,-20.812988196,125.1,-203.7,-70.5,161149
-0.006154603643525357,0.009754290653167057,1.0031171322383408,1.6403198175,7.446289032,-14.3051146875,129.9,-198.9,-69.3,161437
-0.02141802067946824,-0.00432152117545376,1.013067977460736,2.6473998915,6.6452026095,-8.056640592,125.1,-206.1,-69.3,161724
-0.04529788281634663,0.007408322015063588,1.0219398153698598,3.631591782,4.638671856,-3.8986205895,122.69999999999999,-196.5,-70.5,162012
-0.03988183161004431,0.025311766884800593,1.0194221316388923,3.646850571,2.624511708,-2.197265616,125.1,-194.1,-69.89999999999999,162300
0.017355982274741506,0.024323990616125446,1.0046756983575111,1.2435913035,1.815795891,-3.570556626,132.29999999999998,-203.7,-67.5,162588
0.019571639586410634,-0.003704161007531794,0.9809375374655317,1.3351440375,3.463745103,-4.547119122,122.69999999999999,-203.7,-68.7,162877
0.03668143771541113,0.026916903321397703,0.9886104783599089,6.958007784,4.180908186,-4.547119122,127.5,-203.7,-68.1,163165
0.02277203348104382,0.033707865168539325,0.9956839707469128,6.71386716,5.5618285905,-3.9901733235,127.5,-203.7,-66.89999999999999,163452
0.012309207287050714,0.010371650821089023,0.9971226471646085,3.9443969565,5.1803588655,-3.2730102405,122.69999999999999,-201.29999999999998,-67.5,163740
0.022895125553914326,0.02123718977651562,1.0058745953722574,4.5776367,2.761840809,-1.007080074,129.9,-203.7,-68.1,164028
0.04197439684884294,0.0413631312507717,1.0290133077568637,4.486083966,1.1062622025,1.9912719645,127.5,-210.9,-68.1,164315
-0.014894140817331364,0.06062476848993703,1.0398033808895817,2.5558471575,3.173828112,2.563476552,127.5,-203.7,-67.5,164602
-0.028064992614475627,0.011729843190517349,1.0101906246253447,0.2059936515,0.244140624,-7.919311491,122.69999999999999,-196.5,-68.1,164889
-0.04345150172328902,0.00827262625015434,1.0161851096990768,2.456665029,2.624511708,-7.949829069,127.5,-198.9,-66.3,165177
-0.038527818808468735,0.06025435238918385,1.0163049994005515,3.707885727,4.0817260575,-7.888793913,125.1,-201.29999999999998,-66.89999999999999,165465
-0.022279665189561794,-0.02555871095196938,0.9926867282100468,4.3106078925,4.898071269,-5.8517455815,127.5,-201.29999999999998,-68.1,165753
-0.02326440177252585,0.07210766761328559,1.0237381608919793,5.1651000765,5.5923461685,-2.410888662,125.1,-210.9,-67.5,166041
0.015263417035942885,0.006544017779972836,0.994964632538065,5.3634643335,6.027221655,0.7553100555,129.9,-201.29999999999998,-68.7,166328
0.0014771048744460858,0.044449932090381526,1.007073492387004,3.8375854335,4.7225951955,0.534057615,132.29999999999998,-201.29999999999998,-66.89999999999999,166616
0.004062038404726735,0.04099271515001852,0.9995204411941014,3.768920883,4.2190551585,-1.7013549735,122.69999999999999,-196.5,-65.7,166904
0.01932545544066962,0.028892455858747994,0.9923270591056228,2.990722644,3.5476684425,-2.777099598,125.1,-201.29999999999998,-66.3,167191
-0.01120137863121615,0.048154093097913325,1.0160652199976021,3.295898424,3.3340453965,-2.700805653,120.3,-203.7,-66.89999999999999,167479
-0.016986706056129987,0.017903444869737006,1.0200215801462655,3.082275378,1.998901359,-2.9678344605,125.1,-203.7,-63.9,167769
-0.032988675529295915,0.020372885541424867,1.0287735283539143,4.531860333,0.656127927,-5.416870095,122.69999999999999,-206.1,-65.7,168057
-0.05785327424913836,0.044449932090381526,1.0227790432801822,7.308959931,-0.335693358,-8.728027308,120.3,-194.1,-65.7,168346
-0.044682422451994094,0.06074824052352142,1.0159453302961277,9.5901488865,-0.8773803675,-10.0021361895,120.3,-201.29999999999998,-65.1,168632
-0.0310192023633678,0.06284726509445611,1.0094712864164967,10.9329223185,0.030517578,-9.4985961525,127.5,-196.5,-65.7,168920
-0.03175775480059084,0.04037535498209655,1.0038364704471885,11.0244750525,0.7095336885,-7.7285766285,122.69999999999999,-198.9,-65.1,169209
-0.017971442639094042,0.03321397703420175,0.9972425368660832,8.102416959,0.8316040005,-4.364013654,125.1,-196.5,-64.5,169498
-0.018217626784835055,0.03741202617607112,0.99664308835871,6.591796848,1.663208001,-4.0817260575,117.89999999999999,-196.5,-63.9,169784
-0.04542097488921713,0.050253117668848005,1.0004795588058986,4.776000957,2.2506713775,-2.9525756715,122.69999999999999,-206.1,-65.1,170074
-0.02671097981290005,0.06148907272502778,1.019182352235943,2.44140624,2.304077139,-1.8692016525,125.1,-201.29999999999998,-63.3,170363
-0.01070901033973412,0.06926781084084455,1.0118690804459898,0.3585815415,3.311157213,-2.395629873,120.3,-198.9,-62.699999999999996,170651
0.0051698670605613,0.06778614643783183,0.9995204411941014,-0.6179809545,2.2354125885,-6.042480444,120.3,-201.29999999999998,-63.3,170938
0.024002954209748892,0.06383504136313126,0.9932861767174199,-0.6332397435,-0.5874633765,-8.743286097,122.69999999999999,-208.5,-63.3,171227
0.005662235352043328,0.04840103716508211,0.987891140151061,0.8163452115000001,-2.929687488,-8.026123014,122.69999999999999,-194.1,-65.7,171514
-0.005662235352043328,0.07433016421780467,0.999640330895576,6.881713839,-4.5623779110000005,-3.784179672,122.69999999999999,-198.9,-62.699999999999996,171803
-0.01846381093057607,0.08889986418076305,1.0164248891020262,4.7836303515,-1.495361322,-5.004882792,117.89999999999999,-198.9,-64.5,172090
-0.058345642540620385,0.033707865168539325,0.9931662870159453,-1.190185542,1.815795891,-9.8190307215,120.3,-206.1,-63.3,172379
-0.05046774987690793,0.02481787875046302,0.9863325740318907,0.244140624,3.112792956,-13.2217406685,122.69999999999999,-196.5,-62.099999999999994,172666
-0.03828163466272772,0.04173354735152488,0.981177316868481,-0.549316404,4.699707012,-13.778686467,122.69999999999999,-206.1,-63.3,172956
-0.04283604135893648,0.056179775280898875,0.979498861047836,-4.333496076,6.896972628,-12.741088815,120.3,-198.9,-62.099999999999994,173243
-0.061915312653865094,0.024941350784047415,0.9823762138832274,-7.0114135455,8.8882445925,-11.1160277865,129.9,-198.9,-65.1,173532
0.010832102412604629,0.09445610569206075,0.9962834192542861,-7.751464812,7.385253876,-11.5432738785,122.69999999999999,-194.1,-63.3,173819
-0.016863613983259477,-0.005803185578466478,1.0989090037165807,-12.4130248515,-4.7378539845,-8.2778930325,117.89999999999999,-196.5,-64.5,174107
0.024372230428360415,0.19496234102975676,1.008751948207649,-2.410888662,-6.8130492885,-9.8495482995,122.69999999999999,-194.1,-64.5,174395
-0.014032496307237814,0.15532781824916655,1.0214602565639612,0.823974606,-2.5558471575,-4.623413067,120.3,-201.29999999999998,-62.699999999999996,174683
-0.06573116691285082,0.07679960488949253,1.0140270950725332,4.0969848465,2.4948120015,1.0604858355,122.69999999999999,-201.29999999999998,-61.5,174973
-0.04985228951255539,0.027410791455735276,1.008032609998801,6.5231322975,0.961303707,-0.6027221655,117.89999999999999,-191.7,-62.699999999999996,175261
-0.0206794682422452,0.04568465242622546,0.9943651840306917,6.683349582,-1.342773432,-2.8610229375,120.3,-196.5,-63.9,175550
-0.03188084687346135,0.04358562785529078,0.9994005514926267,5.2871703885,-1.7166137625,-1.922607414,117.89999999999999,-198.9,-62.099999999999994,175838
-0.007139340226489414,0.058772687986171135,1.013067977460736,3.6697387545,-1.602172845,0.061035156,120.3,-189.29999999999998,-63.3,176125
0.009601181683899557,0.060995184590690206,1.0004795588058986,1.434326166,-1.464843744,0.6484985325,113.1,-191.7,-61.5,176414
0.014894140817331364,0.08754167181133474,1.0023977940294928,2.349853506,-3.6392211765,-2.9067993045,115.5,-196.5,-63.3,176701
0.010955194485475135,0.10667983701691566,1.0045558086560364,2.4337768455,-4.287719709,-5.34057615,117.89999999999999,-198.9,-62.699999999999996,176989
0.015140324963072379,0.1063094209161625,1.0092315070135476,1.617431634,-3.3493041855,-5.8746337650000005,117.89999999999999,-191.7,-60.9,177278
-0.03225012309207287,0.06371156932954686,0.9971226471646085,-0.137329101,-0.6790161105,-6.2942504625,108.3,-196.5,-61.5,177568
-0.03803545051698671,0.02605259908630695,0.9985613235823043,-0.686645505,-0.167846679,-8.026123014,117.89999999999999,-189.29999999999998,-63.9,177856
-0.03938946331856229,0.028768983825163602,0.9937657355233186,-2.4185180565,0.274658202,-7.858276335,120.3,-179.7,-62.099999999999994,178145
-0.011939931068439193,0.030127176194591924,1.0143867641769573,-6.1264037835,0.686645505,-1.7318725515,113.1,-191.7,-62.699999999999996,178434
0.011447562776957163,0.03815285837757748,1.0166646685049754,-4.88281248,-0.213623046,-1.495361322,115.5,-189.29999999999998,-61.5,178722
0.030157557853274248,0.046919372762069395,1.013787315669584,-2.334594717,-2.2659301665,-3.433227525,113.1,-189.29999999999998,-62.699999999999996,179010
0.020556376169374693,0.08260279046795901,1.0059944850737321,-1.953124992,-3.50952147,-4.8751830855,115.5,-186.9,-61.5,179299
-0.032988675529295915,0.0539572786763798,1.011749190744515,-2.456665029,-3.158569323,-6.118774389,115.5,-196.5,-62.699999999999996,179585
-0.038527818808468735,0.04605506852697864,1.0104304040282939,-1.419067377,-2.2201537995,-7.2402953805,115.5,-186.9,-62.699999999999996,179874
-0.03311176760216642,0.08260279046795901,1.0055149262678336,-0.1296997065,-0.2822875965,-6.2332153065,113.1,-186.9,-62.099999999999994,180161
-0.05452978828163466,0.01765650080256822,1.008392279103225,0.7705688445,0.4501342755,-5.9432983155,115.5,-184.5,-63.3,180450
-0.043328409650418516,-0.0038276330411161873,1.0038364704471885,0.244140624,-0.656127927,-3.479003892,105.89999999999999,-184.5,-63.9,180738
-0.05957656326932546,0.007778738115816767,1.0053950365663589,-0.7400512665,-1.281738276,-1.5335082945,120.3,-182.1,-60.9,181027
-0.04554406696208764,-0.005679713544882084,1.003716580745714,-2.014160148,-2.395629873,-0.91552734,108.3,-189.29999999999998,-61.5,181315
0.0004923682914820286,0.06926781084084455,1.00671382328258,-3.295898424,-4.364013654,-0.0534057615,110.7,-186.9,-62.099999999999994,181603
0.02141802067946824,0.09680207433016422,1.0092315070135476,-3.0441284055,-4.318237287,2.410888662,103.5,-184.5,-62.099999999999994,181891
0.010093549975381585,0.08161501419928387,0.9929265076129961,-2.258300772,-3.570556626,3.4866332865,108.3,-184.5,-61.5,182181
-0.0258493353028065,0.030991480429682677,1.0044359189545617,-1.22070312,-2.4642944235,2.8762817265,110.7,-184.5,-62.099999999999994,182469
-0.02375677006400788,0.00950734658599827,1.0308116532789833,-0.91552734,-2.0370483315,0.4196166975,105.89999999999999,-186.9,-60.3,182757
-0.044682422451994094,0.04975922953451043,1.008032609998801,-1.37329101,-2.792358387,-3.860473617,105.89999999999999,-186.9,-60.9,183044
-0.030773018217626784,0.008025682182985553,1.007073492387004,-1.3351440375,-3.067016589,-2.7236938365,96.3,-186.9,-60.9,183332
-0.08050221565731167,0.0007408322015063588,1.0486752187987052,-1.861572258,-1.6250610285,-0.106811523,96.3,-184.5,-60.9,183619
-0.010216642048252093,0.06173601679219657,1.0226591535787075,1.083374019,1.296997065,2.563476552,108.3,-184.5,-61.5,183907
-0.0022156573116691287,0.058649215952586736,0.9729049274667306,5.065917948,5.7449340585,3.5018920755,103.5,-184.5,-60.3,184194
-0.003692762186115214,0.019508581306334115,1.0230188226831316,5.8670043705,6.439208958,0.15258789,105.89999999999999,-179.7,-60.9,184484
0.06302314130969966,0.027287319422150885,1.0129480877592614,5.615234352,3.982543929,-1.6860961845,98.7,-184.5,-60.9,184771
0.015263417035942885,-0.002963328806025435,1.012108859848939,3.875732406,-0.5569457985,-1.785278313,98.7,-182.1,-60.3,185060
-0.06499261447562776,0.04099271515001852,0.9960436398513368,1.586914056,-4.5852660945,-0.564575193,98.7,-184.5,-59.099999999999994,185348
-0.09699655342195962,0.02679343128781331,1.0237381608919793,3.0593871945,-2.4490356345,-0.0839233395,103.5,-186.9,-59.699999999999996,185638
-0.011324470704086657,0.06556364983331275,1.0074331614914278,5.828857398,0.823974606,-1.67846679,103.5,-184.5,-60.9,185926
0.01981782373215165,0.019878997407087293,0.9824961035847021,5.2108764435,2.990722644,-4.5242309385,96.3,-186.9,-58.5,186215
-0.02671097981290005,-0.019261637239165328,0.998321544179355,2.716064442,2.3422241115,-7.522582977,103.5,-184.5,-60.9,186502
-0.003200393894633186,0.016421780466724288,0.9941254046277425,0.5722045875,0.900268551,-7.751464812,98.7,-182.1,-60.3,186789
0.018340718857705565,0.04148660328435609,0.9942452943292172,-1.464843744,-0.4653930645,-5.7907104255,98.7,-186.9,-60.9,187076
0.014771048744460856,0.08618347944190641,0.994964632538065,-4.1427612135,-1.953124992,-3.9901733235,101.1,-184.5,-62.099999999999994,187364
-0.02880354505169867,0.09853068280034573,1.0273348519362187,-1.922607414,-1.342773432,2.13623046,101.1,-184.5,-60.3,187652
0.0007385524372230429,0.08050376589702432,1.0047955880589858,-0.1144409175,-0.8773803675,3.3340453965,103.5,-179.7,-61.5,187939
-0.06610044313146234,0.022348438078775158,1.035607241337969,2.990722644,0.5722045875,1.7776489185,93.89999999999999,-184.5,-61.5,188226
0.029665189561792222,0.04272132362020002,0.9888502577628582,4.5089721495,1.358032221,-0.183105468,103.5,-189.29999999999998,-60.9,188514
-0.02708025603151157,0.013458451660698851,1.026615513727371,4.88281248,1.281738276,-2.0828246985,96.3,-177.29999999999998,-60.3,188801
0.05108321024126046,0.06185948882578096,0.9918475002997242,4.3258666815,-0.30517578,-1.724243157,101.1,-182.1,-59.699999999999996,189089
-0.04911373707533235,-0.006050129645635264,1.0270950725332695,3.433227525,-2.6321411025,-0.2822875965,98.7,-184.5,-60.9,189378
-0.0023387493845396356,0.10260525990863069,1.007792830595852,3.96728514,-4.1122436355,1.617431634,98.7,-182.1,-60.9,189667
-0.06363860167405219,0.03926410667983702,1.0317707708907804,6.835937472,-2.4185180565,0.8163452115000001,91.5,-177.29999999999998,-62.699999999999996,189953
-0.017971442639094042,0.09099888875169775,1.0116293010430404,10.5972289605,0.2212524405,-1.876831047,98.7,-186.9,-60.9,190242
0.010832102412604629,0.05087047783676997,0.9952044119410143,11.749267530000001,1.0604858355,-5.065917948,98.7,-182.1,-59.099999999999994,190529
0.016001969473165928,0.04519076429188789,0.9937657355233186,10.574340777,0.061035156,-6.4163207745,101.1,-184.5,-58.5,190817
0.001846381093057607,0.049141869366588466,0.9827358829876514,7.263183564,-1.647949212,-5.706787086,93.89999999999999,-177.29999999999998,-60.9,191105
-0.0086164451009355,0.03197925669835782,0.981177316868481,3.8223266445,-2.0980834875,-4.867553691,96.3,-182.1,-59.699999999999996,191393
-0.015755785327424915,0.03654772194098037,0.984893897614195,1.449584955,-0.4043579085,-6.134033178,89.1,-184.5,-60.3,191680
-0.003569670113244707,0.038770218545499446,0.9931662870159453,-1.541137689,0.9231567345,-8.590698207,91.5,-182.1,-60.3,191968
0.02794190054160512,0.04975922953451043,0.991607720896775,-3.341674791,1.907348625,-10.4293822815,98.7,-179.7,-60.3,192255
0.025110782865583457,0.08050376589702432,0.9901690444790793,-6.1874389395,2.487182607,-11.6500854015,101.1,-174.9,-59.099999999999994,192543
-0.011570654849827671,0.03568341770588961,1.004316029253087,-7.5454711605,0.656127927,-11.4517211445,98.7,-177.29999999999998,-60.3,192830
-0.0499753815854259,0.05185825410544512,1.008751948207649,-7.8506469405,-0.701904294,-10.1547240795,96.3,-179.7,-62.099999999999994,193119
-0.09293451501723289,0.03309050500061736,1.0142668744754826,-7.5302123715,-0.244140624,-7.17163083,96.3,-177.29999999999998,-60.3,193407
-0.04000492368291482,0.07346585998271392,1.0118690804459898,-8.2015990875,0.2517700185,-5.0430297645,91.5,-182.1,-60.3,193697
0.04160512063023141,0.12161995308062724,0.9779402949286656,-9.368896446,0.2517700185,-5.1040649205,93.89999999999999,-174.9,-61.5,193984
-0.06880846873461349,-0.052599086306951474,1.0269751828317948,-9.4985961525,0.137329101,-5.6533813245,93.89999999999999,-177.29999999999998,-60.3,194274
-0.086410635155096,-0.04741326089640696,1.0468768732765856,-6.118774389,0.350952147,-5.737304664,93.89999999999999,-177.29999999999998,-61.5,194561
0.07287050713934022,0.08173848623286825,1.0040762498501379,-2.6779174695,-0.4196166975,-5.9280395265,98.7,-172.5,-60.3,194850
-0.012678483505662235,0.12680577849117175,1.035607241337969,0.274658202,-0.8773803675,-7.8048705735,91.5,-170.1,-60.9,195139
0.03286558345642541,0.0684035066057538,0.9820165447788035,1.266479487,-1.037597652,-8.4762572895,96.3,-174.9,-60.3,195428
-0.05071393402264894,-0.0004938881343375726,1.0155856611917036,2.212524405,-0.8010864225,-7.736206023,93.89999999999999,-177.29999999999998,-62.099999999999994,195716
-0.10795174790743477,0.0197555253735029,1.0008392279103224,2.2659301665,-0.30517578,-7.034301729,91.5,-177.29999999999998,-60.9,196004
-0.034958148695224026,0.033954809235708115,1.0104304040282939,0.6484985325,0.0686645505,-6.805419894,86.7,-177.29999999999998,-60.3,196293
-0.0004923682914820286,0.054080750709964195,1.0032370219398155,-0.320434569,0.2975463855,-4.989624003,89.1,-172.5,-60.9,196583
0.011939931068439193,0.05062353376960119,1.0103105143268194,-1.510620111,-0.976562496,-1.2130737255,91.5,-167.7,-59.099999999999994,196871
0.013047759724273756,0.055068526978639336,1.003716580745714,-1.647949212,-2.0828246985,-1.129150386,89.1,-174.9,-59.699999999999996,197159
-0.013047759724273756,0.03555994567230522,1.0094712864164967,-1.892089836,-1.8234252855,-3.81469725,93.89999999999999,-172.5,-59.699999999999996,197447
0.015386509108813392,0.0665514261019879,0.9959237501498621,-1.235961909,-1.5487670835,-5.462646462,91.5,-179.7,-59.699999999999996,197735
-0.03741999015263417,0.05840227188541795,1.0148663229828558,-1.1520385695,-2.258300772,-4.3106078925,93.89999999999999,-177.29999999999998,-60.3,198023
-0.06757754800590841,0.050376589702432396,1.038005035367462,-0.320434569,-3.4408569195,-2.532958974,89.1,-177.29999999999998,-61.5,198312
-0.022895125553914326,0.07111989134461044,1.0207409183551133,0.976562496,-3.753662094,-1.6098022395,91.5,-170.1,-61.5,198599
-0.009601181683899557,0.05099394987035436,1.01678455820645,1.647949212,-1.770019524,-1.113891597,93.89999999999999,-170.1,-62.699999999999996,198888
0.022895125553914326,0.04531423632547228,0.9992806617911522,-3.128051745,0.6484985325,-2.822875965,91.5,-174.9,-60.9,199176
0.013417035942885278,0.05840227188541795,0.999640330895576,-1.5335082945,-0.732421872,-4.7378539845,86.7,-170.1,-61.5,199464
0.010093549975381585,0.08186195826645265,1.0026375734324422,-0.595092771,-3.311157213,-4.6310424615,93.89999999999999,-170.1,-60.9,199750
-0.034465780403742,0.09211013705395728,1.0196619110418415,-1.403808588,-4.043579085,-2.700805653,91.5,-167.7,-60.3,200041
-0.07188577055637617,0.04605506852697864,0.9935259561203693,-2.426147451,-2.761840809,-2.2201537995,86.7,-174.9,-60.3,200328
-0.04862136878385032,0.03383133720212372,1.0005994485073733,2.9983520385,-0.9994506795,-2.532958974,89.1,-177.29999999999998,-57.9,200616
-0.0020925652387986213,0.07149030744536362,0.9922071694041482,4.913330058,1.1672973585,-1.5945434505,93.89999999999999,-174.9,-60.9,200904
0.015263417035942885,0.05346339054204223,0.9925668385085721,0.3738403305,2.0828246985,-0.5111694315,89.1,-170.1,-61.5,201191
0.009601181683899557,0.04506729225830349,1.0005994485073733,-5.6381225355,-1.922607414,0.8621215785,86.7,-174.9,-59.699999999999996,201481
-0.010462826193993106,0.03407828126929251,1.0014386764176957,-11.1007689975,-3.5934448095000002,-0.6790161105,91.5,-177.29999999999998,-60.9,201769
0.00603151157065485,0.03111495246326707,0.99664308835871,-14.297485293,-7.1792602245,-3.7612914885,86.7,-172.5,-60.9,202057
-0.013170851797144265,0.06062476848993703,1.011749190744515,-14.4424437885,-8.1253051425,-4.9209594525,91.5,-174.9,-60.3,202344
-0.010093549975381585,0.038399802444746264,1.0751708428246014,-14.2898558985,-3.7307739105,-3.326416002,91.5,-170.1,-61.5,202632
-0.0947808961102905,0.1332263242375602,1.007073492387004,-7.202148408,3.311157213,-0.4043579085,89.1,-170.1,-62.099999999999994,202920
-0.013909404234367307,0.11742190393875787,1.0254166167126244,-9.323120079,1.1215209915,-4.470825177,86.7,-172.5,-62.699999999999996,203207
-0.018340718857705565,0.00864304235090752,1.0003596691044239,-16.235351496,2.4032592675,-9.7579955655,81.89999999999999,-167.7,-62.699999999999996,203496
-0.01624815361890694,0.007161377947894802,0.9928066179115214,-16.7312621385,6.3247680405,-7.919311491,91.5,-170.1,-62.699999999999996,203787
-0.005662235352043328,-0.07074947524385726,1.0049154777604603,-18.569946213,1.9912719645,-8.8882445925,89.1,-167.7,-60.9,204078
0.032619399310684395,0.02592912705272256,0.9997602205970507,-14.511108339,-6.4010619855,-9.979248006,86.7,-165.29999999999998,-62.099999999999994,204365
0.025603151157065487,0.043462155821706386,1.0103105143268194,-14.03808588,-7.247924775,-2.014160148,89.1,-160.5,-63.9,204654
-0.0723781388478582,0.09494999382639832,1.0038364704471885,-12.634277292,-3.8528442225,4.3258666815,91.5,-165.29999999999998,-63.9,204940
-0.0004923682914820286,0.022965798246697124,1.0163049994005515,-10.437011676000001,-3.021240222,4.2190551585,91.5,-162.9,-63.9,205229
-0.012801575578532743,0.001852080503765897,1.003716580745714,-6.484985325,2.014160148,1.83105468,86.7,-160.5,-64.5,205516
-0.009601181683899557,-0.028892455858747994,0.9852535667186189,-1.1215209915,4.8751830855,-0.1144409175,86.7,-160.5,-62.099999999999994,205804
-0.001600196947316593,-0.06358809729596246,0.9901690444790793,-0.076293945,-1.7013549735,-1.5640258725,91.5,-165.29999999999998,-64.5,206092
0.035942885278188084,-0.011606371156932955,1.0019182352235942,0.656127927,-6.7825317105,-2.044677726,89.1,-167.7,-61.5,206380
0.016494337764647957,0.025311766884800593,1.0079127202973264,-0.320434569,-7.1868896190000005,-0.091552734,93.89999999999999,-165.29999999999998,-62.099999999999994,206668
0.009354997538158542,0.01852080503765897,1.0161851096990768,-1.113891597,-6.698608371,-2.2964477445,89.1,-165.29999999999998,-63.3,206957
0.020433284096504186,0.0012347203358439314,1.0143867641769573,-1.403808588,-5.630493141,-5.79833982,86.7,-167.7,-63.3,207256
0.033357951747907434,0.0007408322015063588,0.9844143388082963,0.8010864225,-4.5394897275,-6.820678683,89.1,-167.7,-63.9,207547
0.024002954209748892,0.016668724533893075,1.0017983455221195,5.4550170675,-4.6463012505,-5.2261352325,84.3,-162.9,-63.9,207837
-0.03606597735105859,0.04099271515001852,1.0166646685049754,8.9950561155,-0.732421872,-1.327514643,86.7,-160.5,-63.3,208125
0.04935992122107336,-0.0684035066057538,0.9977220956719818,9.4833373635,0.0076293945,-5.889892554,91.5,-172.5,-63.9,208414
0.007508616445100935,-0.025435238918384985,1.0239779402949287,8.758544886,0.4043579085,-7.32421872,93.89999999999999,-167.7,-63.9,208702
0.02117183653372723,-0.04123965921718731,1.0014386764176957,7.4844360045,0.534057615,-4.8904418745000005,93.89999999999999,-172.5,-63.3,208990
-0.009724273756770064,0.023336214347450302,1.03021220477161,5.9127807375,0.518798826,-4.058837874,84.3,-177.29999999999998,-63.3,209278
0.023879862136878385,0.0003704161007531794,0.9947248531351157,4.4631957825,0.991821285,-7.369995087,81.89999999999999,-174.9,-64.5,209567
-0.020064007877892663,0.03704161007531794,1.0071933820884786,3.997802718,1.5335082945,-9.857177694,86.7,-182.1,-65.1,209854
-0.04579025110782865,-0.00432152117545376,1.0207409183551133,4.196166975,1.098632808,-8.758544886,91.5,-179.7,-63.9,210142
-0.001600196947316593,0.018397333004074576,0.9941254046277425,2.59399413,-0.045776367,-5.310058572,93.89999999999999,-174.9,-63.9,210429
-0.013786312161496799,-0.015927892332386714,0.9948447428365903,2.059936515,-2.365112295,3.692626938,91.5,-174.9,-62.699999999999996,210716
-0.06105366814377154,-0.0413631312507717,0.9997602205970507,2.1591186435,-4.1580200025,4.4784545715,93.89999999999999,-177.29999999999998,-63.3,211004
-0.0206794682422452,-0.01098901098901099,1.0004795588058986,2.304077139,-5.8746337650000005,3.96728514,91.5,-177.29999999999998,-63.9,211293
-0.031142294436238307,-0.018026916903321397,1.029253087159813,1.312255854,-5.2871703885,3.6697387545,93.89999999999999,-184.5,-62.099999999999994,211580
0.012801575578532743,0.006050129645635264,1.0145066538784318,-0.76293945,-4.547119122,2.9220580935,96.3,-179.7,-63.3,211870
-0.01120137863121615,-0.0395110507470058,1.0263757343244215,-3.4408569195,-3.250122057,2.4642944235,93.89999999999999,-179.7,-64.5,212158
0.014894140817331364,-0.00432152117545376,1.011749190744515,-5.8746337650000005,-1.937866203,3.0136108275,93.89999999999999,-179.7,-66.3,212448
0.035573609059576565,0.014322755895789603,0.9910082723894017,-3.8070678555,-2.380371084,-0.183105468,96.3,-177.29999999999998,-63.9,212736
0.01674052191038897,0.031238424496851463,1.0023977940294928,-0.8316040005,-1.815795891,-1.647949212,84.3,-186.9,-65.1,213024
0.03643525356967011,0.04420298802321274,1.0003596691044239,2.7694702035,-0.6179809545,-1.113891597,89.1,-186.9,-63.9,213313
0.005539143279172821,0.04778367699716014,1.0069536026855292,4.1275024245,-0.0686645505,0.1602172845,91.5,-182.1,-63.9,213602
0.03323485967503693,-0.012594147425608099,1.0040762498501379,4.6920776175,0.5569457985,1.6555786065,93.89999999999999,-186.9,-62.099999999999994,213888
0.009354997538158542,-0.0062970737128040495,1.0101906246253447,4.791259746,1.4266967715,3.463745103,91.5,-191.7,-63.3,214177
0.06142294436238306,-0.05469811087788616,0.9967629780601847,3.8986205895,1.449584955,2.2354125885,93.89999999999999,-191.7,-62.699999999999996,214464
0.037543082225504676,0.008889986418076305,1.0003596691044239,2.7084350475,-0.656127927,-1.770019524,89.1,-191.7,-62.099999999999994,214752
0.0023387493845396356,-0.0009877762686751452,1.0069536026855292,-0.7400512665,-2.365112295,-3.1814575065,86.7,-191.7,-62.699999999999996,215040
-0.04775972427375677,0.03148536856402025,1.0097110658194461,0.015258789,-1.6098022395,-0.3890991195,96.3,-184.5,-63.9,215328
-0.0499753815854259,-0.0062970737128040495,1.0068337129840548,2.9525756715,-1.403808588,1.3656616155,93.89999999999999,-194.1,-63.3,215617
-0.007508616445100935,-0.01654525250030868,0.9935259561203693,5.676269508,-1.4266967715,0.885009762,91.5,-196.5,-61.5,215905
0.03348104382077794,-0.03654772194098037,0.9889701474643328,4.913330058,1.251220698,1.5182495055,86.7,-198.9,-63.3,216193
0.010832102412604629,-0.09136930485245091,1.0155856611917036,4.135131819,1.98364257,1.052856441,86.7,-198.9,-61.5,216481
0.06474643032988675,0.007161377947894802,1.0212204771610118,5.325317361,-0.839233395,-3.9215087730000002,93.89999999999999,-198.9,-63.9,216769
0.03926637124569178,0.01852080503765897,1.0214602565639612,1.235961909,-0.3280639635,-6.3552856185,91.5,-196.5,-63.3,217058
0.02018709995076317,-0.017409556735399432,0.9994005514926267,-0.991821285,1.449584955,-7.9727172525,84.3,-194.1,-62.699999999999996,217345
0.025480059084194977,-0.028892455858747994,0.9918475002997242,0.0534057615,0.656127927,-4.1275024245,91.5,-198.9,-61.5,217633
-0.009724273756770064,-0.038399802444746264,1.005035367461935,0.793457028,-0.9384155235,1.235961909,89.1,-196.5,-62.699999999999996,217920
-0.014401772525849335,-0.02605259908630695,1.0047955880589858,0.381469725,-1.937866203,5.6991576915,91.5,-196.5,-62.699999999999996,218209
-0.01501723289020187,0.003457216940363008,1.0134276465651602,1.419067377,-1.1062622025,5.111694315,91.5,-198.9,-60.9,218496
-0.0086164451009355,0.013581923694283245,1.0189425728329937,1.3198852485,0.6027221655,-0.2822875965,93.89999999999999,-206.1,-63.3,218784
0.023879862136878385,0.0011112483022595382,1.0177436758182472,-0.0991821285,2.2506713775,-5.126953104,91.5,-201.29999999999998,-63.3,219071
0.04419005416051206,-0.003580688973947401,1.0129480877592614,-0.9841918905,3.5781860205,-6.576538059,89.1,-198.9,-63.3,219361
0.04911373707533235,0.023089270280281515,0.9826159932861768,-4.501342755,0.0839233395,-1.388549799,91.5,-203.7,-61.5,219648
0.04160512063023141,0.024323990616125446,0.9827358829876514,-2.9220580935,-3.219604479,2.5100707905,96.3,-196.5,-60.3,219935
0.025110782865583457,-0.0004938881343375726,0.9979618750749311,-0.244140624,-4.9057006635,4.074096663,89.1,-196.5,-63.3,220222
-0.0023387493845396356,-0.01185331522410174,1.0009591176117971,3.7002563325,-2.9830932495,3.8833618005,91.5,-194.1,-62.099999999999994,220512
-0.0292959133431807,-0.009260402518829485,1.0124685289533628,7.003784151,-0.3585815415,1.464843744,86.7,-194.1,-62.699999999999996,220801
-0.025726243229935993,0.0032102728731942215,1.0383647044718858,5.9585571045,1.266479487,-1.2283325145,91.5,-196.5,-62.699999999999996,221090
-0.03212703101920236,0.04630201259414742,1.0165447788035007,3.1051635615,4.0359496905,-0.2517700185,91.5,-198.9,-62.099999999999994,221378
0.01120137863121615,0.05889616001975553,1.0093513967150223,2.1591186435,4.714965801,-0.76293945,91.5,-203.7,-63.9,221667
-0.030157557853274248,0.004815409309791332,0.9864524637333653,2.0065307535,3.9749145345,-3.158569323,84.3,-191.7,-62.099999999999994,221954
-0.03606597735105859,-0.00950734658599827,0.9856132358230428,4.455566388,2.1133422765,-1.2283325145,93.89999999999999,-203.7,-62.099999999999994,222242
0.0007385524372230429,0.021854549944437585,0.9994005514926267,6.3400268295,0.1907348625,0.4806518535,91.5,-201.29999999999998,-62.099999999999994,222530
0.03828163466272772,0.06383504136313126,1.0340486752187987,5.8975219485,-0.045776367,2.792358387,86.7,-198.9,-63.3,222821
0.034588872476612506,0.03358439313495493,1.0161851096990768,0.9994506795,0.6484985325,5.1345824985,91.5,-206.1,-63.9,223108
0.002461841457410143,-0.004568465242622546,1.0041961395516126,1.0299682575,1.3504028265,6.118774389,91.5,-201.29999999999998,-62.699999999999996,223396
-0.0011078286558345643,-0.0013581923694283246,1.0058745953722574,2.1438598545,2.0217895425,5.5770873795,86.7,-203.7,-63.9,223684
0.00947808961102905,0.017409556735399432,1.0127083083563122,2.0675659095,1.98364257,2.9983520385,89.1,-196.5,-62.099999999999994,223973
0.011693746922698178,0.017903444869737006,1.0177436758182472,0.6637573215,2.3727416895,1.98364257,89.1,-201.29999999999998,-62.699999999999996,224261
-0.0038158542589857214,-0.007161377947894802,1.0227790432801822,-2.5863647355,2.1896362215,2.9983520385,86.7,-198.9,-62.699999999999996,224549
-0.03212703101920236,-0.02481787875046302,1.0134276465651602,-5.7907104255,2.3574829005,3.1356811395,86.7,-201.29999999999998,-59.699999999999996,224837
-0.0066469719350073855,-0.04568465242622546,1.0073132717899533,-8.010864225,1.2893676705,1.67846679,93.89999999999999,-203.7,-60.9,225126
0.003200393894633186,-0.02913939992591678,1.001678455820645,-8.911132776,0.4653930645,0.4959106425,89.1,-196.5,-62.699999999999996,225414
-0.0014771048744460858,-0.002963328806025435,1.0003596691044239,-8.0337524085,0.0534057615,1.2741088815,84.3,-196.5,-62.099999999999994,225702
-0.0002461841457410143,0.013334979627114458,0.9995204411941014,-7.3471069035,0.534057615,2.975463855,81.89999999999999,-198.9,-62.699999999999996,225990
0.03126538650910882,-0.005679713544882084,1.0059944850737321,-7.4234008485,-0.1144409175,4.3411254705,89.1,-182.1,-63.3,226278
0.03877400295420975,-0.01222373132485492,1.0239779402949287,-6.820678683,-0.991821285,9.3917846295,91.5,-196.5,-63.3,226565
0.029172821270310192,0.0011112483022595382,1.032250329696679,-4.5776367,0.2365112295,7.5454711605,86.7,-189.29999999999998,-61.5,226854
0.017355982274741506,0.004074577108284973,1.0351276825320705,-2.4032592675,1.2130737255,2.761840809,89.1,-194.1,-63.3,227142
0.02018709995076317,-0.012347203358439314,1.0224193741757583,-1.556396478,0.4501342755,-0.503540037,91.5,-194.1,-63.3,227431
0.023018217626784836,-0.03210272873194221,1.0068337129840548,-0.9384155235,-1.556396478,-1.083374019,91.5,-196.5,-61.5,227720
0.014401772525849335,-0.022224966045190763,0.9950845222395396,0.5264282205,-3.5171508645,-0.198364257,84.3,-191.7,-63.3,228009
-0.008370260955194485,-0.029756760093838746,0.9720656995564081,2.471923818,-6.1874389395,1.4419555605,98.7,-189.29999999999998,-63.3,228295
-0.0023387493845396356,-0.06704531423632547,0.9875314710466371,1.815795891,-9.3307494735,4.531860333,84.3,-191.7,-64.5,228584
-0.07016248153618906,-0.051734782071860726,1.0047955880589858,0.7705688445,-2.334594717,7.614135711,81.89999999999999,-186.9,-62.699999999999996,228871
-0.04234367306745446,-0.044326460056797135,1.0056348159693083,-1.449584955,4.333496076,2.9220580935,91.5,-191.7,-63.9,229159
-0.0011078286558345643,-0.05161131003827633,1.0076729408943772,-4.4631957825,9.2849731065,-3.189086901,86.7,-189.29999999999998,-61.5,229446
0.05046774987690793,-0.051734782071860726,0.994964632538065,-6.5536498755,10.2615356025,-7.4081420595,86.7,-191.7,-64.5,229737
0.06954702117183653,-0.04741326089640696,0.9779402949286656,-6.8740844445,7.9574584635,-8.865356409,91.5,-189.29999999999998,-63.9,230027
0.05723781388478582,-0.054945054945054944,0.968708787915118,-5.5465698015000005,3.9749145345,-7.492065399,86.7,-186.9,-62.699999999999996,230316
0.03729689807976366,-0.05247561427336708,0.9647524277664549,-3.158569323,-0.1144409175,-4.531860333,86.7,-189.29999999999998,-63.3,230604
0.060930576070901035,-0.07581182862081738,0.9882508092554849,-2.1133422765,-3.7765502775,0.778198239,91.5,-177.29999999999998,-62.699999999999996,230893
-0.1482028557360906,0.07321891591554514,1.0068337129840548,11.001586869,10.9481811075,-0.2517700185,86.7,-174.9,-64.5,231181
-0.00258493353028065,-0.03580688973947401,1.0293729768612876,5.584716774,8.056640592,-9.399414024,89.1,-177.29999999999998,-65.1,231469
0.01070901033973412,-0.11705148783800469,0.991607720896775,-1.022338863,8.010864225,-9.262084923,86.7,-177.29999999999998,-63.9,231757
-0.046282619399310686,-0.032843560933448576,0.9947248531351157,1.251220698,6.225585912,-2.8457641485,86.7,-177.29999999999998,-63.9,232045
-0.037173806006893156,0.029262871959501172,1.0111497422371418,1.8997192305,4.5089721495,1.388549799,89.1,-170.1,-63.9,232332
-0.03360413589364845,0.012470675392023707,1.0240978299964034,-2.685546864,4.8751830855,2.319335928,89.1,-174.9,-65.1,232622
-0.027326440177252585,-0.004074577108284973,1.0053950365663589,-3.005981433,3.326416002,1.7166137625,84.3,-170.1,-62.699999999999996,232909
0.02449532250123092,-0.018273860970490184,1.0220597050713345,-1.8844604415,0.808715817,4.089355452,89.1,-170.1,-63.3,233197
-0.0022156573116691287,0.02950981602666996,1.0122287495504136,-1.358032221,-1.647949212,5.0430297645,86.7,-177.29999999999998,-63.3,233484
-0.0030773018217626785,0.00827262625015434,0.98657235343484,-2.578735341,-0.8926391565,5.752563453,89.1,-172.5,-64.5,233773
-0.01464795667159035,-0.007531794048647981,0.9826159932861768,-0.2365112295,1.5792846615,5.8364867925,91.5,-170.1,-61.5,234060
-0.024618414574101428,0.012347203358439314,0.9956839707469128,2.014160148,4.486083966,3.311157213,81.89999999999999,-172.5,-64.5,234348
-0.03175775480059084,0.02049635757500926,0.9995204411941014,1.358032221,8.285522427,-1.2435913035,89.1,-170.1,-63.3,234636
-0.03348104382077794,0.0032102728731942215,1.0071933820884786,-0.2670288075,11.489868117,-6.607055637,91.5,-167.7,-63.3,234929
-0.05662235352043329,-0.007037905914310408,1.0116293010430404,-1.174926753,11.154174759,-9.536743125,91.5,-170.1,-64.5,235219
0.0653618906942393,0.059760464254846275,1.0333293370099508,7.034301729,0.854492184,-6.9961547565,91.5,-172.5,-62.699999999999996,235508
-0.045051698670605614,0.027410791455735276,0.9972425368660832,-1.571655267,-0.564575193,1.495361322,91.5,-167.7,-63.3,235795
-0.019940915805022157,0.06692184220274108,0.9697877952283899,1.0757446245,-0.259399413,0.2822875965,89.1,-160.5,-62.099999999999994,236084
0.012186115214180207,0.008889986418076305,0.9737441553770532,10.879516557,-1.1672973585,12.3062133285,86.7,-165.29999999999998,-62.699999999999996,236371
0.010462826193993106,0.056426719348067665,1.02685529313032,16.4871215145,-2.471923818,24.4522093725,86.7,-162.9,-62.099999999999994,236660
-0.0120630231413097,0.08038029386343994,1.015465771490229,12.619018503,-2.2048950105,22.445678619,84.3,-165.29999999999998,-60.9,236947
0.028311176760216644,0.07803432522533646,1.023858050593454,13.7252807055,-4.165649397,18.524169846,89.1,-179.7,-61.5,237237
0.03741999015263417,0.017409556735399432,1.0274547416376933,13.442993109,-6.134033178,16.098022395,84.3,-167.7,-62.699999999999996,237525
-0.04098966026587888,0.052846030374120265,1.0862006953602685,10.5819701715,-5.844116187,12.344360301,86.7,-174.9,-61.5,237815
0.00775480059084195,0.050253117668848005,1.0059944850737321,6.912231417,4.11987303,1.0147094685,86.7,-170.1,-61.5,238103
-0.010832102412604629,0.06544017779972836,1.0220597050713345,14.755248963,4.959106425,7.1640014355,89.1,-167.7,-62.699999999999996,238394
-0.0054160512063023145,0.058649215952586736,1.004316029253087,13.229370063,3.50952147,7.354736298,89.1,-174.9,-61.5,238682
-0.0004923682914820286,0.05161131003827633,1.0135475362666346,9.9258422445,1.113891597,8.2473754545,86.7,-174.9,-61.5,238970
-0.02449532250123092,0.05704407951598963,1.0089917276105982,7.7743529955,-1.098632808,8.316040005,86.7,-172.5,-59.699999999999996,239257
-0.00775480059084195,0.04185701938510927,1.0093513967150223,5.157470682,-4.501342755,7.6522826835,86.7,-170.1,-60.3,239547
-0.004431314623338257,0.049265341400172864,1.012828198057787,3.799438461,-7.537841766,8.148193326,84.3,-172.5,-62.099999999999994,239834
-0.0009847365829640572,0.03815285837757748,1.0127083083563122,4.0359496905,-10.772705034,10.0784301345,86.7,-167.7,-61.5,240122
-0.042097488921713444,0.12729966662550932,1.0394437117851576,5.554199196,-9.780883749000001,11.1618041535,81.89999999999999,-172.5,-63.3,240411
-0.031142294436238307,0.14261019878997408,1.03021220477161,4.1885375805,-4.394531232,5.7144164805,81.89999999999999,-174.9,-59.699999999999996,240699
0.004923682914820286,0.12717619459192492,1.0157055508931783,4.745483379,0.0228881835,0.823974606,89.1,-184.5,-59.699999999999996,240986
0.009354997538158542,0.07173725151253241,0.9948447428365903,10.009765584,2.3574829005,-3.35693358,91.5,-174.9,-58.5,241274
0.021541112752338748,0.11717495987158909,1.0085121688046996,14.6102904675,2.1743774325,-4.8294067185,86.7,-182.1,-59.099999999999994,241561
0.014032496307237814,0.05111742190393876,1.0071933820884786,9.7427367765,2.7389526255,-2.471923818,84.3,-172.5,-60.9,241849
0.009108813392417528,0.007037905914310408,0.9958038604483875,8.178710904,0.778198239,0.106811523,79.5,-174.9,-59.699999999999996,242136
0.0007385524372230429,0.007037905914310408,1.0053950365663589,7.6828002615,-2.28881835,1.327514643,79.5,-179.7,-59.699999999999996,242425
-0.010462826193993106,0.0665514261019879,1.0068337129840548,-1.8997192305,-6.0195922605,0.6179809545,79.5,-172.5,-59.099999999999994,242712
-0.014401772525849335,0.06926781084084455,1.0041961395516126,-1.7166137625,-5.3024291775,0.717163083,84.3,-179.7,-58.5,243001
-0.03138847858197932,0.045437708359056674,1.0111497422371418,1.8539428635,-3.9596557455,0.808715817,81.89999999999999,-182.1,-57.9,243289
-0.02892663712456918,0.05655019138165206,1.0109099628341924,5.889892554,-2.6168823135,0.518798826,79.5,-182.1,-58.5,243577
-0.03655834564254062,0.060995184590690206,1.0025176837309675,5.432128884,0.5416870095,0.3280639635,84.3,-182.1,-56.699999999999996,243864
-0.02843426883308715,0.06371156932954686,1.0017983455221195,2.5863647355,4.0969848465,-0.5416870095,84.3,-184.5,-59.099999999999994,244152
0.0006154603643525357,0.04605506852697864,0.9936458458218439,-0.991821285,6.347656224,-2.853393543,81.89999999999999,-184.5,-59.699999999999996,244442
0.047267355982274745,0.01963205333991851,0.9857331255245174,-2.5253295795,4.6920776175,-5.5007934345,77.1,-177.29999999999998,-57.3,244731
0.058345642540620385,0.08408445487097173,0.9755425008991727,-3.5629272315,-4.4174194155,-7.78198239,84.3,-177.29999999999998,-60.3,245018
0.01563269325455441,0.03642424990739598,0.9727850377652559,-5.9127807375,-7.7133178395,-1.8539428635,89.1,-172.5,-59.699999999999996,245306
0.001600196947316593,0.056179775280898875,0.9917276105982497,-1.754760735,-11.1312865755,4.5852660945,79.5,-179.7,-60.3,245594
-0.014155588380108322,0.07655266082232375,1.0123486392518883,0.5416870095,-10.1852416575,7.3928832705,86.7,-182.1,-58.5,245882
-0.016494337764647957,0.08013334979627114,1.0185829037285696,0.671386716,-6.3247680405,5.34057615,84.3,-179.7,-59.699999999999996,246169
-0.033973412112259974,0.030003704161007533,1.0103105143268194,-0.1144409175,-2.59399413,2.426147451,84.3,-179.7,-59.099999999999994,246457
-0.029542097488921712,-0.0007408322015063588,1.0017983455221195,4.974365214,-2.3727416895,2.731323231,86.7,-182.1,-60.3,246746
-0.00012309207287050715,0.07593530065440178,1.0046756983575111,8.4152221335,-2.670288075,4.11987303,84.3,-182.1,-59.099999999999994,247035
0.01501723289020187,0.015434004198049142,0.994964632538065,-1.708984368,0.701904294,2.563476552,84.3,-172.5,-58.5,247324
0.04775972427375677,0.05074700580318558,0.9907684929864524,0.900268551,-1.266479487,-0.4196166975,79.5,-179.7,-57.3,247612
0.07644017725258494,0.07482405235214223,0.9960436398513368,-1.0147094685,-3.2577514515,-1.2893676705,79.5,-179.7,-57.9,247900
0.07139340226489414,0.06692184220274108,1.0097110658194461,-3.7155151215,-5.020141581,0.930786129,81.89999999999999,-186.9,-57.9,248188
0.03052683407188577,0.02136066181010001,1.008392279103225,-4.470825177,-6.027221655,2.0675659095,89.1,-184.5,-58.5,248475
-0.008493353028064993,0.013211507593530066,0.9995204411941014,1.4419555605,-7.202148408,2.182006827,86.7,-189.29999999999998,-59.099999999999994,248762
-0.01637124569177745,0.07630571675515496,1.0035966910442393,4.5394897275,-4.5089721495,1.1825561475,77.1,-182.1,-57.9,249050
-0.014155588380108322,0.10902580565501914,0.9988011029852536,-2.243041983,2.151489249,-2.74658202,81.89999999999999,-179.7,-60.3,249339
0.02978828163466273,0.04161007531794049,0.9890900371658075,0.5416870095,4.42504881,-4.547119122,81.89999999999999,-182.1,-59.699999999999996,249630
0.06265386509108814,0.0685269786393382,0.9929265076129961,5.386352517,-0.503540037,-0.335693358,84.3,-182.1,-58.5,249918
0.035573609059576565,0.06679837016915668,0.9956839707469128,3.585815415,-4.8446655075,4.5776367,84.3,-186.9,-59.099999999999994,250205
0.006893156080748399,0.01889122113841215,0.9972425368660832,1.6708373955,-7.1945190135,7.995605436,86.7,-184.5,-57.9,250494
-0.018217626784835055,0.007408322015063588,0.9898093753746553,6.8283080775,-6.8283080775,7.827758757,81.89999999999999,-184.5,-59.699999999999996,250783
-0.013047759724273756,0.06753920237066305,1.0023977940294928,8.7509154915,-4.8904418745000005,3.3950805525,81.89999999999999,-184.5,-57.9,251072
-0.020064007877892663,0.0521051981726139,0.9871718019422132,1.708984368,0.335693358,-4.638671856,84.3,-182.1,-58.5,251359
0.0048005908419497785,0.03185578466477343,0.9514446709027694,-3.8223266445,1.724243157,-11.29150386,84.3,-186.9,-57.3,251649
0.02535696701132447,0.09124583281886653,0.9494065459777005,-0.8926391565,-1.8997192305,-4.943847636,86.7,-174.9,-57.3,251936
0.05243722304283604,0.13643659711075443,0.969068457019542,-5.3787231225,-4.0359496905,-0.061035156,89.1,-177.29999999999998,-59.699999999999996,252224
-0.015140324963072379,-0.0395110507470058,0.9575590456779762,-6.698608371,-4.455566388,2.9067993045,86.7,-186.9,-61.5,252512
-0.011570654849827671,0.018150388936905792,0.9874115813451625,8.3236693995,-7.0571899125,6.088256811,86.7,-182.1,-60.3,252800
0.011939931068439193,0.11186566242746018,1.0119889701474643,10.101318318,-4.898071269,4.88281248,86.7,-184.5,-60.3,253087
0.0,0.09038152858377578,1.0142668744754826,0.320434569,0.5264282205,-0.4196166975,86.7,-184.5,-59.699999999999996,253376
-0.009108813392417528,-0.02481787875046302,1.0076729408943772,-3.3950805525,3.829956039,-6.225585912,81.89999999999999,-186.9,-59.099999999999994,253663
0.0292959133431807,0.08976416841585382,1.0134276465651602,-1.6860961845,0.91552734,-7.93457028,84.3,-184.5,-58.5,253953
0.0002461841457410143,0.09285096925546364,1.0317707708907804,-5.966186499,1.464843744,-4.989624003,96.3,-184.5,-60.3,254241
0.009108813392417528,0.09235708112112606,1.0589857331255246,-7.78198239,3.448486314,-5.477905251,86.7,-184.5,-60.9,254529
0.011816838995568686,-0.0012347203358439314,1.0388442632777843,-5.34057615,4.104614241,-7.751464812,93.89999999999999,-189.29999999999998,-58.5,254816
0.04985228951255539,0.08161501419928387,1.0384845941733605,2.914428699,-0.122070312,-6.393432591,84.3,-189.29999999999998,-60.3,255106
0.043697685869030035,0.13347326830472897,1.0448387483515167,0.5264282205,-2.960205066,-4.3411254705,91.5,-189.29999999999998,-60.9,255393
0.01501723289020187,0.06716878626990987,1.0220597050713345,-2.74658202,-4.470825177,-1.1978149365,98.7,-186.9,-60.3,255682
-0.006400787789266372,0.05914310408692431,1.0062342644766815,5.676269508,-6.8283080775,2.807617176,86.7,-182.1,-60.9,255972
-0.005539143279172821,0.09161624891961971,1.0345282340246973,5.18798826,-3.860473617,3.372192369,86.7,-184.5,-60.3,256260
-0.004431314623338257,0.030991480429682677,1.028893418055389,4.974365214,-2.6168823135,-0.1144409175,96.3,-184.5,-60.3,256547
-0.0030773018217626785,0.04062229904926534,1.0332094473084763,8.4762572895,-0.930786129,-1.358032221,89.1,-189.29999999999998,-59.099999999999994,256836
0.009354997538158542,0.08927028028151623,1.032969667905527,6.240844701,1.464843744,-1.342773432,89.1,-194.1,-61.5,257124
0.02486459871984244,0.10112359550561797,1.0206210286536386,-0.1602172845,3.082275378,-2.502441396,96.3,-194.1,-60.3,257412
0.01981782373215165,0.029880232127423138,0.9994005514926267,-1.144409175,2.5863647355,-3.5171508645,89.1,-186.9,-63.3,257699
0.02621861152141802,0.05321644647487344,0.999640330895576,4.837036113,-0.0381469725,-2.197265616,93.89999999999999,-189.29999999999998,-61.5,257987
0.02375677006400788,0.13050993949870354,1.022898932981657,5.0430297645,-0.885009762,-0.45776367,91.5,-191.7,-62.099999999999994,258274
0.008985721319547021,0.027534263489319668,1.027934300443592,-3.4103393415,3.067016589,-1.312255854,96.3,-189.29999999999998,-60.9,258563
0.006523879862136878,0.03074453636251389,1.0185829037285696,4.028320296,1.403808588,-0.808715817,93.89999999999999,-184.5,-59.099999999999994,258853
0.013540128015755786,0.0737128040498827,1.0097110658194461,8.041381803,0.2670288075,-1.800537102,96.3,-196.5,-60.9,259141
0.01501723289020187,0.06358809729596246,1.0010790073132718,3.5781860205,0.9384155235,-4.6768188285,96.3,-191.7,-60.9,259428
-0.007877892663712457,0.005309297444128905,0.9830955520920753,-0.3738403305,1.342773432,-7.2402953805,98.7,-189.29999999999998,-61.5,259716
-0.008739537173806006,0.039881466847758985,0.9812972065699557,-0.61035156,1.2435913035,-7.904052702,98.7,-191.7,-60.3,260004
0.0019694731659281144,0.08359056673663415,0.9917276105982497,-2.914428699,2.9067993045,-6.9503783895,96.3,-189.29999999999998,-60.9,260292
0.010216642048252093,0.07346585998271392,0.9876513607481118,-6.0806274165,5.0582885535,-5.8517455815,98.7,-189.29999999999998,-63.3,260579
-0.006400787789266372,0.03358439313495493,0.9937657355233186,-2.13623046,2.4337768455,0.396728514,101.1,-182.1,-61.5,260867
0.004923682914820286,0.07704654895666131,1.0052751468648844,1.3046264595000001,0.747680661,2.365112295,98.7,-186.9,-61.5,261157
0.042712949286065977,0.11223607852821336,0.9974823162690325,0.3280639635,1.3809204045,0.503540037,93.89999999999999,-194.1,-60.9,261445
0.06794682422451995,0.10458081244598098,0.9821364344802781,-1.770019524,3.097534167,-2.777099598,105.89999999999999,-191.7,-61.5,261732
0.051452486459871986,0.03383133720212372,0.9723054789593574,-2.334594717,3.402709947,-3.5324096535,96.3,-191.7,-60.9,262020
0.04394387001477105,-0.009260402518829485,0.9528833473204652,-0.7247924775,0.3585815415,-4.714965801,108.3,-189.29999999999998,-61.5,262309
0.040128015755785326,0.038646746511915055,0.9598369500059944,0.5569457985,-2.639770497,-6.8130492885,108.3,-191.7,-61.5,262597
-0.002461841457410143,0.06568712186689715,0.9835751108979739,-3.2882690295,-2.8915405155,-5.8746337650000005,108.3,-191.7,-61.5,262883
-0.03975873953717381,0.07297197184837634,1.0297326459657115,-7.202148408,0.061035156,1.022338863,105.89999999999999,-186.9,-62.699999999999996,263171
-0.048005908419497784,0.061118656624274605,1.0324901090996284,-4.2953491035,2.502441396,0.9384155235,108.3,-196.5,-62.099999999999994,263458
-0.007016248153618907,0.08581306334115323,1.0282939695480158,-0.3433227525,3.3645629745,-4.043579085,103.5,-194.1,-60.9,263748
0.0292959133431807,0.10100012347203359,1.011749190744515,1.144409175,5.9738158935,-9.5443725195,110.7,-194.1,-62.699999999999996,264036
0.03668143771541113,0.10161748363995556,0.9906486032849778,-0.0686645505,7.003784151,-14.5187377335,110.7,-191.7,-62.099999999999994,264324
0.03225012309207287,0.10161748363995556,0.9902889341805539,-2.700805653,5.706787086,-13.854980412,108.3,-194.1,-62.099999999999994,264611
-0.009108813392417528,0.045808124459809856,1.0004795588058986,-4.7988891405,3.2730102405,-5.8975219485,113.1,-189.29999999999998,-62.099999999999994,264902
-0.008862629246676515,-0.0019755525373502903,1.0,-3.616332993,-1.1672973585,1.8844604415,105.89999999999999,-191.7,-62.099999999999994,265190
0.013663220088626292,0.09569082602790469,1.0094712864164967,-0.7247924775,-6.8893432335,2.7389526255,125.1,-184.5,-62.699999999999996,265478
-0.003938946331856229,0.1655759970366712,1.031650881189306,-3.7155151215,-3.0746459835,2.075195304,110.7,-189.29999999999998,-62.699999999999996,265766
-0.02498769079271295,0.09643165822941104,1.0214602565639612,-7.7743529955,2.5405883685,-0.91552734,117.89999999999999,-186.9,-64.5,266056
-0.01760216642048252,0.05432769477713298,1.008392279103225,-4.8751830855,5.1651000765,-4.0206909015,122.69999999999999,-186.9,-65.1,266344
-0.00258493353028065,0.08754167181133474,1.018103344922671,0.0076293945,5.8364867925,-6.042480444,120.3,-196.5,-62.099999999999994,266633
