ax,ay,az,gx,gy,gz,mx,my,mz,t_stamp
-0.021664204825209258,0.03222620076552661,1.0123486392518883,0.4501342755,-0.122070312,0.137329101,156.29999999999998,-143.7,-65.7,11218
-0.02191038897095027,0.032843560933448576,1.007073492387004,0.625610349,0.1754760735,0.1144409175,156.29999999999998,-143.7,-66.3,11445
-0.02117183653372723,0.03333744906778615,1.0059944850737321,0.366210936,0.2975463855,0.0839233395,158.7,-141.29999999999998,-66.3,11672
-0.022156573116691284,0.02950981602666996,1.00671382328258,-0.0534057615,0.030517578,-0.1144409175,158.7,-148.5,-65.7,11898
-0.021787296898079764,0.029262871959501172,1.0041961395516126,-0.0534057615,0.0228881835,-0.0381469725,163.5,-143.7,-64.5,12123
-0.02191038897095027,0.03222620076552661,1.0058745953722574,0.045776367,0.1449584955,-0.0381469725,156.29999999999998,-143.7,-66.89999999999999,12350
-0.021294928606597735,0.032843560933448576,1.007073492387004,0.0534057615,0.1296997065,-0.061035156,158.7,-141.29999999999998,-66.3,12629
-0.02031019202363368,0.03296703296703297,1.0093513967150223,0.015258789,-0.0076293945,0.015258789,158.7,-143.7,-66.3,12914
-0.019079271294928608,0.03197925669835782,1.0086320585061743,0.0839233395,0.0686645505,0.0076293945,156.29999999999998,-143.7,-65.7,13198
-0.020433284096504186,0.03197925669835782,1.0051552571634097,0.0381469725,0.122070312,-0.0686645505,151.5,-146.1,-65.7,13484
-0.021664204825209258,0.03173231263118904,1.0056348159693083,-0.015258789,0.106811523,-0.0228881835,158.7,-143.7,-67.5,13769
-0.020433284096504186,0.03222620076552661,1.008392279103225,0.076293945,0.015258789,-0.015258789,158.7,-143.7,-65.7,14054
-0.021048744460856722,0.032473144832695394,1.0062342644766815,0.0686645505,0.1449584955,-0.0381469725,156.29999999999998,-146.1,-65.1,14338
-0.02141802067946824,0.03346092110137054,1.007792830595852,0.122070312,0.091552734,0.0076293945,158.7,-143.7,-65.1,14624
-0.021664204825209258,0.03309050500061736,1.00671382328258,-0.015258789,0.213623046,0.0228881835,163.5,-136.5,-65.7,14908
-0.020064007877892663,0.03309050500061736,1.0053950365663589,0.076293945,0.0839233395,-0.0991821285,149.1,-143.7,-65.1,15194
-0.022648941408173313,0.03197925669835782,1.0058745953722574,-0.076293945,0.0381469725,-0.076293945,163.5,-143.7,-64.5,15479
-0.02141802067946824,0.03222620076552661,1.0051552571634097,-0.0839233395,0.0534057615,-0.015258789,156.29999999999998,-146.1,-66.89999999999999,15764
-0.023141309699655343,0.03148536856402025,1.0073132717899533,0.030517578,0.0686645505,0.0228881835,158.7,-146.1,-65.1,16048
-0.021048744460856722,0.032596616866279786,1.0079127202973264,-0.0228881835,0.137329101,0.0076293945,161.1,-148.5,-65.1,16334
-0.021294928606597735,0.031361896530435855,1.0038364704471885,0.0381469725,0.0991821285,-0.061035156,161.1,-141.29999999999998,-65.7,16620
-0.019694731659281144,0.032596616866279786,1.007073492387004,0.061035156,0.061035156,0.0381469725,156.29999999999998,-143.7,-66.89999999999999,16906
-0.021664204825209258,0.03197925669835782,1.0075530511929025,0.061035156,0.076293945,-0.015258789,156.29999999999998,-146.1,-67.5,17191
-0.02191038897095027,0.031361896530435855,1.0039563601486632,-0.0228881835,0.1144409175,-0.015258789,151.5,-146.1,-65.7,17476
-0.020925652387986212,0.030868008396098285,1.0081524997002758,0.0076293945,0.0228881835,0.0,161.1,-141.29999999999998,-63.9,17761
-0.020433284096504186,0.03025064822817632,1.007792830595852,0.0534057615,0.137329101,0.0,158.7,-143.7,-65.1,18046
-0.023387493845396356,0.03210272873194221,1.0052751468648844,0.0839233395,-0.061035156,-0.0076293945,158.7,-146.1,-66.3,18331
-0.021664204825209258,0.03321397703420175,1.0039563601486632,0.122070312,-0.030517578,-0.015258789,158.7,-146.1,-64.5,18617
-0.02141802067946824,0.03272008889986418,1.007792830595852,-0.0381469725,0.0228881835,0.0381469725,163.5,-141.29999999999998,-66.3,18902
-0.020433284096504186,0.03210272873194221,1.005754705670783,-0.091552734,0.0686645505,-0.0076293945,158.7,-146.1,-65.7,19191
-0.02191038897095027,0.032596616866279786,1.0059944850737321,0.0839233395,0.137329101,-0.091552734,156.29999999999998,-148.5,-66.89999999999999,19476
-0.02191038897095027,0.03321397703420175,1.0056348159693083,0.045776367,0.0839233395,-0.015258789,149.1,-143.7,-66.3,19764
-0.022525849335302807,0.031608840597604645,1.0061143747752068,0.015258789,0.1602172845,-0.045776367,153.9,-146.1,-65.1,20048
-0.023510585918266862,0.03309050500061736,1.0071933820884786,-0.0076293945,0.122070312,-0.0991821285,156.29999999999998,-146.1,-64.5,20334
-0.021048744460856722,0.031238424496851463,1.004316029253087,-0.0839233395,0.061035156,-0.045776367,163.5,-136.5,-65.7,20618
-0.02117183653372723,0.03173231263118904,1.0071933820884786,0.0,0.076293945,-0.076293945,158.7,-143.7,-65.1,20903
-0.021787296898079764,0.030621064328929498,1.0056348159693083,0.0,0.091552734,-0.0076293945,156.29999999999998,-146.1,-65.1,21187
-0.020802560315115706,0.030497592295345103,1.0069536026855292,0.091552734,0.045776367,0.076293945,153.9,-146.1,-64.5,21472
-0.022156573116691284,0.03222620076552661,1.0061143747752068,0.030517578,0.0991821285,0.0839233395,163.5,-143.7,-67.5,21759
-0.0206794682422452,0.032473144832695394,1.0056348159693083,-0.0228881835,0.137329101,-0.106811523,156.29999999999998,-143.7,-65.7,22044
-0.020556376169374693,0.03321397703420175,1.0085121688046996,0.030517578,0.0076293945,0.0076293945,156.29999999999998,-143.7,-66.3,22329
-0.0224027572624323,0.032843560933448576,1.008392279103225,0.106811523,0.076293945,0.0228881835,163.5,-146.1,-65.1,22614
-0.020556376169374693,0.03173231263118904,1.0055149262678336,-0.015258789,0.1144409175,0.0,158.7,-143.7,-65.7,22901
-0.020433284096504186,0.03309050500061736,1.004316029253087,-0.106811523,0.137329101,0.0381469725,151.5,-146.1,-67.5,23186
-0.02031019202363368,0.032843560933448576,1.0073132717899533,0.0381469725,0.091552734,0.0381469725,161.1,-143.7,-66.3,23471
-0.021664204825209258,0.03321397703420175,1.0074331614914278,0.045776367,0.061035156,-0.0228881835,153.9,-146.1,-67.5,23755
-0.022279665189561794,0.033954809235708115,1.0076729408943772,0.0534057615,0.106811523,0.015258789,156.29999999999998,-136.5,-64.5,24039
-0.023633677991137372,0.029880232127423138,1.007792830595852,-0.015258789,0.2212524405,-0.030517578,153.9,-141.29999999999998,-67.5,24329
-0.020556376169374693,0.030497592295345103,1.0062342644766815,0.030517578,0.0686645505,-0.0381469725,158.7,-143.7,-66.3,24615
-0.01981782373215165,0.030991480429682677,1.0040762498501379,-0.0228881835,0.0228881835,0.0228881835,156.29999999999998,-143.7,-65.1,24900
-0.020556376169374693,0.032596616866279786,1.0056348159693083,-0.045776367,0.061035156,-0.030517578,153.9,-143.7,-66.89999999999999,25185
-0.020556376169374693,0.031361896530435855,1.0071933820884786,-0.0381469725,0.076293945,-0.1144409175,153.9,-146.1,-66.89999999999999,25473
-0.020802560315115706,0.03197925669835782,1.008032609998801,-0.0228881835,-0.030517578,-0.076293945,158.7,-150.9,-65.7,25759
-0.01883308714918759,0.03197925669835782,1.0045558086560364,-0.061035156,0.076293945,-0.122070312,156.29999999999998,-148.5,-65.1,26044
-0.02117183653372723,0.03222620076552661,1.0046756983575111,0.0839233395,0.106811523,-0.1602172845,151.5,-146.1,-66.89999999999999,26328
-0.023387493845396356,0.032473144832695394,1.0045558086560364,-0.061035156,0.1144409175,-0.076293945,153.9,-138.9,-66.3,26613
-0.017848350566223536,0.03272008889986418,1.0045558086560364,0.0991821285,0.1602172845,0.0,151.5,-143.7,-64.5,26901
-0.021294928606597735,0.030003704161007533,1.007073492387004,-0.0381469725,0.137329101,-0.061035156,158.7,-141.29999999999998,-66.3,27187
-0.021294928606597735,0.031238424496851463,1.0088718379091237,-0.030517578,0.0381469725,-0.1296997065,158.7,-148.5,-65.7,27475
-0.02018709995076317,0.032843560933448576,1.0046756983575111,0.0686645505,0.091552734,-0.015258789,161.1,-141.29999999999998,-66.3,27760
-0.019940915805022157,0.03074453636251389,1.0052751468648844,0.0228881835,0.0534057615,-0.0381469725,153.9,-141.29999999999998,-66.3,28050
-0.021664204825209258,0.03173231263118904,1.0062342644766815,0.015258789,0.122070312,-0.0534057615,165.9,-146.1,-66.89999999999999,28339
-0.022279665189561794,0.03148536856402025,1.003716580745714,0.091552734,0.091552734,-0.0991821285,153.9,-148.5,-67.5,28625
-0.02031019202363368,0.03185578466477343,1.005754705670783,0.0228881835,0.122070312,-0.045776367,149.1,-148.5,-67.5,28913
-0.020802560315115706,0.03173231263118904,1.0056348159693083,0.0381469725,0.106811523,-0.091552734,156.29999999999998,-148.5,-65.7,29216
-0.020064007877892663,0.030868008396098285,1.0074331614914278,0.045776367,0.061035156,0.045776367,156.29999999999998,-136.5,-64.5,29505
-0.022648941408173313,0.030621064328929498,1.0065939335811054,0.061035156,0.0686645505,-0.0534057615,158.7,-146.1,-65.7,29791
-0.019571639586410634,0.03173231263118904,1.0064740438796307,0.0076293945,0.0686645505,-0.0839233395,156.29999999999998,-141.29999999999998,-65.7,30077
-0.0189561792220581,0.029756760093838746,1.0076729408943772,-0.0228881835,0.1144409175,0.076293945,151.5,-146.1,-64.5,30366
-0.021664204825209258,0.03173231263118904,1.007073492387004,0.0,0.0228881835,0.0228881835,158.7,-143.7,-66.3,30655
-0.021048744460856722,0.03210272873194221,1.0075530511929025,-0.045776367,0.0076293945,-0.015258789,153.9,-146.1,-67.5,30942
-0.023141309699655343,0.032843560933448576,1.0069536026855292,0.0534057615,0.1144409175,-0.015258789,156.29999999999998,-146.1,-66.3,31229
-0.02141802067946824,0.032349672799111,1.0058745953722574,0.15258789,-0.030517578,-0.015258789,156.29999999999998,-141.29999999999998,-66.89999999999999,31515
-0.02018709995076317,0.03074453636251389,1.0065939335811054,0.091552734,0.0534057615,-0.0228881835,156.29999999999998,-141.29999999999998,-68.1,31804
-0.02117183653372723,0.032843560933448576,1.0065939335811054,-0.030517578,0.0,-0.0228881835,158.7,-148.5,-67.5,32091
-0.020802560315115706,0.03185578466477343,1.0065939335811054,-0.1144409175,0.1296997065,-0.015258789,156.29999999999998,-141.29999999999998,-64.5,32378
-0.023510585918266862,0.029756760093838746,1.007073492387004,-0.0534057615,0.091552734,-0.091552734,153.9,-143.7,-64.5,32665
-0.022033481043820777,0.030127176194591924,1.0065939335811054,0.0534057615,0.0839233395,-0.091552734,161.1,-148.5,-66.3,32951
-0.022033481043820777,0.03210272873194221,1.008392279103225,0.091552734,0.061035156,-0.0076293945,158.7,-148.5,-65.7,33238
-0.023879862136878385,0.03210272873194221,1.0061143747752068,-0.030517578,0.0839233395,0.0,153.9,-143.7,-67.5,33524
-0.02141802067946824,0.030991480429682677,1.0046756983575111,-0.0839233395,0.137329101,-0.0534057615,158.7,-138.9,-65.7,33809
-0.019694731659281144,0.031238424496851463,1.0069536026855292,-0.030517578,0.0686645505,-0.0381469725,149.1,-143.7,-68.1,34098
-0.020556376169374693,0.032473144832695394,1.0068337129840548,0.045776367,-0.0076293945,-0.091552734,158.7,-150.9,-65.7,34385
-0.020802560315115706,0.03148536856402025,1.005754705670783,0.122070312,0.061035156,-0.0991821285,153.9,-150.9,-65.7,34671
-0.021787296898079764,0.02950981602666996,1.007073492387004,0.0228881835,0.198364257,-0.0381469725,153.9,-148.5,-66.89999999999999,34956
-0.02141802067946824,0.03148536856402025,1.0059944850737321,0.0381469725,0.091552734,-0.0839233395,156.29999999999998,-143.7,-65.7,35242
-0.02018709995076317,0.032349672799111,1.0040762498501379,0.0228881835,0.0991821285,0.015258789,165.9,-146.1,-66.89999999999999,35528
-0.021048744460856722,0.03074453636251389,1.0081524997002758,0.122070312,0.076293945,0.0534057615,156.29999999999998,-141.29999999999998,-68.1,35814
-0.021048744460856722,0.031608840597604645,1.0068337129840548,-0.0534057615,0.106811523,-0.0991821285,156.29999999999998,-148.5,-65.7,36100
-0.021787296898079764,0.032596616866279786,1.002997242536866,-0.0076293945,0.1754760735,0.0076293945,156.29999999999998,-141.29999999999998,-65.1,36385
-0.02031019202363368,0.03222620076552661,1.0064740438796307,0.076293945,0.106811523,-0.0076293945,151.5,-155.7,-66.89999999999999,36673
-0.020556376169374693,0.03173231263118904,1.0061143747752068,0.0076293945,0.045776367,0.0,156.29999999999998,-146.1,-66.89999999999999,36961
-0.023633677991137372,0.03222620076552661,1.0064740438796307,0.076293945,0.076293945,0.0,156.29999999999998,-148.5,-68.1,37246
-0.019694731659281144,0.032349672799111,1.0064740438796307,0.0381469725,0.0686645505,-0.045776367,156.29999999999998,-143.7,-65.1,37534
-0.021541112752338748,0.028768983825163602,1.0073132717899533,0.076293945,0.0534057615,-0.030517578,156.29999999999998,-141.29999999999998,-67.5,37821
-0.019940915805022157,0.03185578466477343,1.0085121688046996,0.0381469725,0.045776367,-0.045776367,156.29999999999998,-153.29999999999998,-66.89999999999999,38109
-0.02018709995076317,0.03148536856402025,1.0061143747752068,-0.0228881835,0.045776367,-0.0686645505,156.29999999999998,-141.29999999999998,-66.3,38397
-0.022279665189561794,0.030868008396098285,1.006354154178156,0.0076293945,0.0839233395,-0.0839233395,158.7,-141.29999999999998,-66.89999999999999,38686
-0.022279665189561794,0.031238424496851463,1.0058745953722574,0.015258789,0.106811523,-0.0534057615,156.29999999999998,-143.7,-66.3,38971
-0.021048744460856722,0.03210272873194221,1.0049154777604603,-0.0076293945,0.0839233395,-0.106811523,151.5,-138.9,-64.5,39261
-0.021048744460856722,0.03173231263118904,1.008751948207649,-0.0076293945,0.122070312,-0.0839233395,156.29999999999998,-143.7,-66.89999999999999,39545
-0.022525849335302807,0.03210272873194221,1.007792830595852,-0.0381469725,0.122070312,-0.0228881835,156.29999999999998,-146.1,-65.7,39834
-0.022279665189561794,0.03197925669835782,1.0046756983575111,-0.0534057615,0.091552734,-0.0686645505,158.7,-150.9,-65.7,40120
-0.0206794682422452,0.031238424496851463,1.0023977940294928,0.0534057615,0.106811523,-0.015258789,156.29999999999998,-146.1,-66.89999999999999,40407
-0.021294928606597735,0.032596616866279786,1.01007073492387,0.0,0.1754760735,-0.0076293945,156.29999999999998,-143.7,-66.3,40692
-0.020433284096504186,0.031361896530435855,1.0073132717899533,0.0381469725,0.030517578,-0.076293945,156.29999999999998,-146.1,-66.3,40979
-0.019940915805022157,0.03025064822817632,1.0074331614914278,0.0686645505,0.0686645505,-0.076293945,161.1,-146.1,-65.7,41264
-0.022525849335302807,0.032843560933448576,1.0076729408943772,0.137329101,0.1754760735,-0.0076293945,151.5,-150.9,-64.5,41549
-0.02141802067946824,0.03210272873194221,1.007792830595852,0.091552734,0.0534057615,-0.030517578,158.7,-148.5,-66.3,41834
-0.020064007877892663,0.032596616866279786,1.007073492387004,0.030517578,0.061035156,-0.0686645505,156.29999999999998,-146.1,-68.7,42121
-0.020925652387986212,0.03407828126929251,1.0059944850737321,0.076293945,0.015258789,-0.1602172845,156.29999999999998,-146.1,-65.7,42405
-0.022033481043820777,0.030991480429682677,1.0056348159693083,0.076293945,-0.0228881835,-0.0381469725,161.1,-146.1,-66.89999999999999,42691
-0.022033481043820777,0.03148536856402025,1.005035367461935,-0.0228881835,0.0991821285,0.0076293945,156.29999999999998,-148.5,-65.7,42976
-0.019571639586410634,0.03321397703420175,1.008032609998801,-0.0228881835,0.0228881835,-0.045776367,161.1,-138.9,-65.1,43261
-0.023141309699655343,0.031238424496851463,1.0086320585061743,-0.076293945,0.1144409175,-0.122070312,156.29999999999998,-146.1,-66.3,43545
-0.021048744460856722,0.03309050500061736,1.0075530511929025,-0.0381469725,0.0076293945,0.015258789,156.29999999999998,-141.29999999999998,-63.9,43832
-0.02117183653372723,0.03321397703420175,1.0039563601486632,0.0534057615,0.015258789,-0.0228881835,161.1,-155.7,-65.1,44118
-0.022895125553914326,0.03025064822817632,1.0061143747752068,0.0534057615,0.0991821285,-0.0534057615,156.29999999999998,-141.29999999999998,-65.1,44408
-0.020802560315115706,0.03185578466477343,1.007792830595852,0.1754760735,0.0534057615,-0.0076293945,156.29999999999998,-146.1,-65.7,44695
-0.021541112752338748,0.030621064328929498,1.0059944850737321,-0.015258789,0.030517578,-0.0076293945,156.29999999999998,-150.9,-65.1,44981
-0.02375677006400788,0.03296703296703297,1.0069536026855292,0.0076293945,0.0228881835,-0.0076293945,161.1,-143.7,-65.7,45266
-0.02141802067946824,0.030868008396098285,1.007073492387004,-0.015258789,0.076293945,0.0228881835,158.7,-141.29999999999998,-65.1,45552
-0.020802560315115706,0.03148536856402025,1.008392279103225,0.0534057615,0.122070312,-0.0839233395,156.29999999999998,-143.7,-66.3,45837
-0.020433284096504186,0.03309050500061736,1.0062342644766815,0.045776367,0.0686645505,-0.0228881835,156.29999999999998,-146.1,-64.5,46124
-0.019940915805022157,0.030003704161007533,1.0045558086560364,-0.0381469725,0.0991821285,0.0,158.7,-148.5,-64.5,46410
-0.0224027572624323,0.03222620076552661,1.0074331614914278,0.045776367,0.1296997065,-0.0381469725,161.1,-143.7,-65.7,46695
-0.020802560315115706,0.03173231263118904,1.0059944850737321,0.0686645505,0.137329101,-0.0228881835,161.1,-153.29999999999998,-63.9,46980
-0.021664204825209258,0.03309050500061736,1.007073492387004,-0.015258789,0.045776367,-0.0381469725,158.7,-143.7,-66.89999999999999,47265
-0.021664204825209258,0.032596616866279786,1.0038364704471885,0.045776367,0.015258789,-0.0228881835,161.1,-148.5,-66.89999999999999,47550
-0.021294928606597735,0.032596616866279786,1.0052751468648844,0.0,0.0534057615,-0.045776367,158.7,-148.5,-66.89999999999999,47835
-0.02031019202363368,0.03210272873194221,1.0055149262678336,-0.061035156,0.0381469725,-0.0381469725,158.7,-143.7,-65.7,48120
-0.022648941408173313,0.030621064328929498,1.0052751468648844,0.0686645505,0.122070312,0.0,156.29999999999998,-143.7,-66.3,48405
-0.021048744460856722,0.030621064328929498,1.0056348159693083,0.091552734,0.15258789,-0.0534057615,158.7,-143.7,-65.7,48691
-0.02031019202363368,0.03222620076552661,1.0052751468648844,0.137329101,0.061035156,-0.030517578,153.9,-143.7,-66.3,48977
-0.021664204825209258,0.030497592295345103,1.0058745953722574,0.0686645505,0.045776367,-0.0381469725,163.5,-148.5,-65.1,49261
-0.02117183653372723,0.032843560933448576,1.005035367461935,-0.0381469725,0.0534057615,-0.0839233395,151.5,-150.9,-66.89999999999999,49550
-0.021787296898079764,0.03309050500061736,1.0040762498501379,0.061035156,0.1296997065,-0.0839233395,151.5,-148.5,-65.7,49835
-0.022279665189561794,0.031608840597604645,1.0097110658194461,0.0381469725,0.106811523,-0.0228881835,156.29999999999998,-146.1,-65.7,50120
-0.02117183653372723,0.030991480429682677,1.007792830595852,0.045776367,0.106811523,-0.045776367,156.29999999999998,-146.1,-65.1,50405
-0.02117183653372723,0.031361896530435855,1.0051552571634097,-0.076293945,0.122070312,0.0381469725,161.1,-141.29999999999998,-66.89999999999999,50692
-0.02191038897095027,0.029756760093838746,1.0069536026855292,0.030517578,0.061035156,-0.0228881835,163.5,-148.5,-66.89999999999999,50978
-0.022648941408173313,0.031238424496851463,1.006354154178156,0.0534057615,-0.015258789,0.030517578,153.9,-138.9,-65.7,51263
-0.020433284096504186,0.03185578466477343,1.0056348159693083,0.015258789,0.0381469725,0.0381469725,153.9,-150.9,-65.7,51548
-0.0224027572624323,0.03148536856402025,1.005754705670783,-0.030517578,0.0076293945,-0.015258789,156.29999999999998,-146.1,-64.5,51843
-0.019940915805022157,0.031361896530435855,1.008751948207649,0.076293945,0.106811523,0.076293945,156.29999999999998,-146.1,-66.3,52128
-0.021294928606597735,0.03197925669835782,1.0059944850737321,0.0228881835,0.1907348625,-0.0228881835,153.9,-143.7,-66.3,52413
-0.02191038897095027,0.030868008396098285,1.0058745953722574,0.0228881835,0.106811523,-0.0686645505,158.7,-143.7,-66.3,52698
-0.022525849335302807,0.03197925669835782,1.00335691164129,-0.0076293945,0.1296997065,-0.015258789,156.29999999999998,-146.1,-67.5,52983
-0.021787296898079764,0.03296703296703297,1.008751948207649,0.106811523,0.061035156,-0.030517578,163.5,-153.29999999999998,-65.7,53268
-0.021664204825209258,0.0342017533028769,1.0071933820884786,0.0534057615,0.15258789,0.0381469725,158.7,-143.7,-65.7,53553
-0.02191038897095027,0.032473144832695394,1.0068337129840548,-0.0076293945,0.137329101,0.015258789,153.9,-141.29999999999998,-65.7,53837
-0.021541112752338748,0.03197925669835782,1.0046756983575111,0.0381469725,0.091552734,-0.0381469725,153.9,-141.29999999999998,-65.1,54122
-0.021787296898079764,0.03037412026176071,1.006354154178156,-0.0381469725,0.0381469725,0.015258789,156.29999999999998,-138.9,-66.89999999999999,54407
-0.020802560315115706,0.030991480429682677,1.0035966910442393,-0.0686645505,0.0381469725,0.015258789,153.9,-146.1,-66.3,54698
-0.02031019202363368,0.03111495246326707,1.0028773528353914,-0.0228881835,0.0,-0.0076293945,161.1,-146.1,-65.1,54983
-0.02141802067946824,0.03148536856402025,1.0052751468648844,0.0534057615,0.061035156,0.0076293945,165.9,-150.9,-65.1,55268
-0.022156573116691284,0.03309050500061736,1.0059944850737321,0.015258789,0.122070312,-0.0381469725,161.1,-141.29999999999998,-66.89999999999999,55552
-0.020556376169374693,0.03383133720212372,1.0056348159693083,0.061035156,0.091552734,0.0381469725,156.29999999999998,-148.5,-66.89999999999999,55839
-0.02191038897095027,0.030868008396098285,1.0069536026855292,-0.0228881835,0.061035156,-0.030517578,163.5,-146.1,-65.7,56126
-0.022525849335302807,0.03185578466477343,1.007792830595852,-0.0534057615,0.0686645505,-0.061035156,153.9,-146.1,-65.1,56412
-0.0206794682422452,0.03185578466477343,1.002997242536866,0.0839233395,0.061035156,0.0,156.29999999999998,-146.1,-66.3,56696
-0.022033481043820777,0.030868008396098285,1.006354154178156,0.045776367,0.122070312,-0.0076293945,158.7,-141.29999999999998,-68.1,56982
-0.021048744460856722,0.032349672799111,1.0045558086560364,0.045776367,0.137329101,-0.0534057615,165.9,-138.9,-65.7,57270
-0.02117183653372723,0.03296703296703297,1.002997242536866,0.061035156,0.106811523,-0.0534057615,158.7,-146.1,-68.7,57555
-0.020802560315115706,0.03272008889986418,1.0053950365663589,0.0686645505,0.076293945,0.0,163.5,-141.29999999999998,-65.7,57840
-0.020802560315115706,0.03346092110137054,1.0028773528353914,-0.045776367,0.0534057615,-0.076293945,158.7,-148.5,-64.5,58125
-0.0224027572624323,0.033954809235708115,1.0047955880589858,0.0534057615,0.0686645505,0.045776367,158.7,-136.5,-65.7,58410
-0.021664204825209258,0.032349672799111,1.0085121688046996,0.0076293945,0.045776367,-0.061035156,156.29999999999998,-153.29999999999998,-67.5,58696
-0.022279665189561794,0.03111495246326707,1.0088718379091237,0.1296997065,0.045776367,-0.0076293945,161.1,-148.5,-66.3,58980
-0.021787296898079764,0.032596616866279786,1.0035966910442393,0.0991821285,0.1144409175,-0.0534057615,153.9,-146.1,-66.89999999999999,59275
-0.020433284096504186,0.032473144832695394,1.005035367461935,-0.0076293945,0.076293945,-0.061035156,158.7,-150.9,-66.89999999999999,59565
-0.02326440177252585,0.032596616866279786,1.0055149262678336,-0.0228881835,0.1754760735,-0.0991821285,161.1,-146.1,-66.89999999999999,59851
-0.019940915805022157,0.03111495246326707,1.005754705670783,0.030517578,0.15258789,-0.045776367,156.29999999999998,-141.29999999999998,-65.1,60136
-0.02141802067946824,0.03173231263118904,1.004316029253087,-0.0228881835,0.076293945,0.015258789,153.9,-143.7,-65.1,60422
-0.022895125553914326,0.03333744906778615,1.0068337129840548,0.0228881835,0.0686645505,-0.0381469725,158.7,-150.9,-65.1,60707
-0.02117183653372723,0.033707865168539325,1.004316029253087,0.0686645505,0.0839233395,-0.045776367,153.9,-148.5,-65.1,60993
-0.018586903003446578,0.031608840597604645,1.0021580146265436,0.0381469725,0.0381469725,0.0228881835,158.7,-148.5,-66.3,61278
-0.02031019202363368,0.03185578466477343,1.0055149262678336,0.061035156,0.015258789,0.030517578,156.29999999999998,-143.7,-68.1,61563
-0.020433284096504186,0.032843560933448576,1.0059944850737321,-0.030517578,0.106811523,0.030517578,161.1,-143.7,-65.1,61848
-0.02117183653372723,0.03111495246326707,1.005035367461935,-0.015258789,0.1144409175,-0.015258789,156.29999999999998,-136.5,-65.7,62134
-0.022156573116691284,0.03025064822817632,1.0061143747752068,0.015258789,0.0534057615,-0.0839233395,158.7,-148.5,-65.7,62418
-0.02031019202363368,0.031608840597604645,1.0075530511929025,0.030517578,0.0228881835,-0.061035156,156.29999999999998,-141.29999999999998,-66.89999999999999,62703
-0.0206794682422452,0.029262871959501172,1.0055149262678336,0.0228881835,0.0534057615,0.0076293945,153.9,-138.9,-66.89999999999999,62988
-0.02277203348104382,0.03210272873194221,1.006354154178156,0.030517578,0.061035156,-0.0228881835,161.1,-138.9,-66.3,63274
-0.0241260462826194,0.032843560933448576,1.0049154777604603,-0.0076293945,0.076293945,-0.076293945,158.7,-146.1,-65.7,63559
-0.020802560315115706,0.03272008889986418,1.0056348159693083,-0.061035156,0.0686645505,-0.0228881835,158.7,-143.7,-66.89999999999999,63844
-0.019571639586410634,0.032349672799111,1.0039563601486632,-0.0381469725,-0.0381469725,0.061035156,151.5,-141.29999999999998,-64.5,64129
-0.019079271294928608,0.031238424496851463,1.0079127202973264,0.0228881835,0.122070312,-0.030517578,151.5,-146.1,-66.89999999999999,64414
-0.020925652387986212,0.03358439313495493,1.0098309555209208,-0.0686645505,0.122070312,0.015258789,156.29999999999998,-141.29999999999998,-65.7,64704
-0.02031019202363368,0.03444869737004568,1.006354154178156,0.0381469725,0.0686645505,0.015258789,156.29999999999998,-141.29999999999998,-65.7,64991
-0.022895125553914326,0.03346092110137054,1.0073132717899533,0.0839233395,0.076293945,-0.030517578,158.7,-143.7,-65.1,65276
-0.022156573116691284,0.03333744906778615,1.0051552571634097,0.106811523,0.1296997065,-0.0228881835,158.7,-146.1,-66.3,65561
-0.02191038897095027,0.03197925669835782,1.0039563601486632,0.0534057615,-0.0076293945,-0.0076293945,156.29999999999998,-148.5,-66.3,65846
-0.022033481043820777,0.032473144832695394,1.0068337129840548,0.0,-0.015258789,-0.0228881835,156.29999999999998,-143.7,-65.1,66131
-0.021541112752338748,0.03173231263118904,1.006354154178156,-0.045776367,0.1144409175,-0.0686645505,158.7,-146.1,-63.9,66415
-0.021541112752338748,0.031608840597604645,1.0062342644766815,0.0076293945,0.122070312,-0.045776367,161.1,-141.29999999999998,-65.7,66700
-0.019079271294928608,0.031361896530435855,1.0071933820884786,0.1144409175,0.061035156,0.015258789,158.7,-143.7,-66.3,66984
-0.022525849335302807,0.03333744906778615,1.00671382328258,-0.0534057615,0.091552734,0.0381469725,161.1,-146.1,-65.1,67269
-0.021294928606597735,0.03309050500061736,1.008032609998801,0.0381469725,0.091552734,0.015258789,153.9,-146.1,-65.7,67560
-0.021294928606597735,0.030991480429682677,1.0058745953722574,0.045776367,0.1144409175,-0.030517578,158.7,-143.7,-65.1,67846
-0.021787296898079764,0.031361896530435855,1.00671382328258,0.0,0.15258789,-0.167846679,153.9,-143.7,-65.7,68131
-0.02141802067946824,0.03111495246326707,1.0071933820884786,-0.0228881835,0.15258789,-0.061035156,158.7,-150.9,-65.7,68415
-0.019694731659281144,0.03210272873194221,1.0008392279103224,0.0228881835,0.122070312,-0.015258789,158.7,-146.1,-66.89999999999999,68702
-0.02031019202363368,0.03309050500061736,1.0075530511929025,0.030517578,0.030517578,-0.015258789,156.29999999999998,-143.7,-63.9,68988
-0.02141802067946824,0.03555994567230522,1.007792830595852,-0.045776367,0.1754760735,-0.0381469725,156.29999999999998,-143.7,-66.3,69272
-0.0241260462826194,0.03222620076552661,1.0085121688046996,0.0228881835,0.0839233395,-0.0228881835,161.1,-146.1,-67.5,69558
-0.021541112752338748,0.030868008396098285,1.0089917276105982,0.061035156,0.061035156,-0.0381469725,161.1,-143.7,-68.7,69842
-0.02018709995076317,0.031608840597604645,1.00335691164129,0.0228881835,0.076293945,-0.061035156,156.29999999999998,-136.5,-66.3,70130
-0.02117183653372723,0.031238424496851463,1.0061143747752068,0.0,0.0534057615,-0.091552734,156.29999999999998,-143.7,-65.7,70415
-0.022648941408173313,0.030991480429682677,1.005035367461935,0.015258789,0.0,-0.030517578,156.29999999999998,-141.29999999999998,-66.89999999999999,70701
-0.020556376169374693,0.032349672799111,1.0045558086560364,0.030517578,0.0534057615,0.061035156,153.9,-150.9,-66.3,70987
-0.019940915805022157,0.03210272873194221,1.0046756983575111,0.076293945,0.0534057615,-0.091552734,153.9,-146.1,-65.1,71275
-0.02117183653372723,0.030868008396098285,1.0055149262678336,0.122070312,0.0228881835,-0.015258789,153.9,-143.7,-66.89999999999999,71560
-0.022525849335302807,0.03197925669835782,1.0041961395516126,0.0534057615,0.0381469725,0.0076293945,158.7,-143.7,-68.1,71845
-0.020433284096504186,0.031608840597604645,1.0055149262678336,-0.045776367,0.0991821285,0.0,156.29999999999998,-146.1,-65.7,72129
-0.021664204825209258,0.03148536856402025,1.0075530511929025,0.015258789,0.0991821285,0.0,149.1,-138.9,-67.5,72416
-0.022895125553914326,0.031608840597604645,1.004316029253087,-0.0991821285,0.122070312,-0.030517578,158.7,-143.7,-64.5,72703
-0.019694731659281144,0.03074453636251389,1.0058745953722574,0.030517578,0.015258789,-0.015258789,158.7,-141.29999999999998,-63.3,72989
-0.020433284096504186,0.030868008396098285,1.005035367461935,-0.0381469725,0.076293945,0.015258789,158.7,-136.5,-66.3,73273
-0.022033481043820777,0.032596616866279786,1.0038364704471885,-0.061035156,0.061035156,-0.0076293945,153.9,-148.5,-66.3,73559
-0.0224027572624323,0.032473144832695394,1.0085121688046996,0.061035156,0.0076293945,-0.0076293945,156.29999999999998,-143.7,-66.89999999999999,73846
-0.02117183653372723,0.031361896530435855,1.0062342644766815,0.061035156,0.106811523,-0.0686645505,158.7,-143.7,-68.1,74132
-0.021541112752338748,0.03272008889986418,1.0047955880589858,0.0381469725,0.15258789,-0.106811523,156.29999999999998,-146.1,-65.7,74416
-0.02375677006400788,0.03185578466477343,1.0051552571634097,-0.045776367,0.1144409175,0.030517578,156.29999999999998,-143.7,-65.1,74701
-0.019571639586410634,0.03222620076552661,1.0052751468648844,-0.0076293945,0.122070312,-0.045776367,163.5,-141.29999999999998,-65.7,74985
-0.0206794682422452,0.032473144832695394,1.0062342644766815,-0.076293945,0.076293945,0.0076293945,158.7,-141.29999999999998,-64.5,75274
-0.02191038897095027,0.03309050500061736,1.0062342644766815,0.0,0.137329101,-0.030517578,153.9,-143.7,-65.7,75559
-0.022648941408173313,0.031238424496851463,1.0055149262678336,0.0,0.0991821285,-0.0381469725,153.9,-146.1,-65.7,75844
-0.023018217626784836,0.031361896530435855,1.0052751468648844,0.0534057615,0.091552734,-0.015258789,156.29999999999998,-141.29999999999998,-64.5,76129
-0.022033481043820777,0.031238424496851463,1.0058745953722574,0.061035156,0.0839233395,-0.0839233395,158.7,-150.9,-65.7,76418
-0.022895125553914326,0.03272008889986418,1.008392279103225,0.0686645505,0.106811523,-0.0534057615,153.9,-141.29999999999998,-65.1,76702
-0.020433284096504186,0.03383133720212372,1.00671382328258,-0.061035156,0.137329101,-0.0381469725,153.9,-143.7,-65.1,76987
-0.022033481043820777,0.033954809235708115,1.0045558086560364,-0.1754760735,0.0381469725,-0.061035156,158.7,-146.1,-66.89999999999999,77271
-0.022525849335302807,0.032473144832695394,1.0038364704471885,-0.0381469725,0.045776367,-0.0686645505,158.7,-148.5,-68.1,77557
-0.021294928606597735,0.03197925669835782,1.0065939335811054,0.106811523,0.1144409175,-0.076293945,156.29999999999998,-148.5,-66.3,77845
-0.02191038897095027,0.03272008889986418,1.003716580745714,-0.030517578,0.1602172845,-0.0686645505,158.7,-143.7,-66.3,78131
-0.022895125553914326,0.030497592295345103,1.0053950365663589,-0.0076293945,0.0686645505,-0.0534057615,156.29999999999998,-146.1,-66.89999999999999,78415
-0.020556376169374693,0.032596616866279786,1.0052751468648844,0.0381469725,0.1296997065,0.0381469725,156.29999999999998,-141.29999999999998,-65.7,78702
-0.0189561792220581,0.03346092110137054,1.0058745953722574,-0.0381469725,0.122070312,0.061035156,163.5,-143.7,-65.7,78990
-0.02191038897095027,0.032349672799111,1.0044359189545617,-0.0228881835,0.122070312,0.0076293945,156.29999999999998,-143.7,-65.7,79276
-0.023018217626784836,0.03185578466477343,1.006354154178156,0.0228881835,0.0534057615,-0.061035156,151.5,-143.7,-64.5,79561
-0.01981782373215165,0.03148536856402025,1.0088718379091237,0.0228881835,0.0839233395,-0.045776367,153.9,-143.7,-65.1,79846
-0.022279665189561794,0.030991480429682677,1.0047955880589858,0.091552734,0.122070312,-0.0228881835,161.1,-141.29999999999998,-64.5,80131
-0.021048744460856722,0.031608840597604645,1.0081524997002758,0.137329101,0.091552734,-0.015258789,161.1,-146.1,-65.7,80419
-0.019448547513540127,0.031608840597604645,1.0065939335811054,0.0228881835,0.0534057615,0.015258789,158.7,-143.7,-65.1,80704
-0.022033481043820777,0.031361896530435855,1.0046756983575111,0.106811523,0.0076293945,-0.030517578,158.7,-150.9,-66.89999999999999,80988
-0.022648941408173313,0.032349672799111,1.0046756983575111,-0.0076293945,0.0076293945,0.0,153.9,-143.7,-63.9,81275
-0.021664204825209258,0.03185578466477343,1.0053950365663589,0.0,0.045776367,0.0228881835,163.5,-146.1,-65.7,81574
-0.019571639586410634,0.03111495246326707,1.0082723894017505,0.122070312,0.091552734,0.0228881835,151.5,-143.7,-66.3,81861
-0.02141802067946824,0.032349672799111,1.00335691164129,0.15258789,0.0381469725,-0.0381469725,156.29999999999998,-141.29999999999998,-66.89999999999999,82146
-0.023018217626784836,0.032349672799111,1.005035367461935,0.0076293945,0.030517578,-0.0228881835,158.7,-141.29999999999998,-68.1,82431
-0.020925652387986212,0.03111495246326707,1.0055149262678336,0.122070312,0.122070312,-0.0534057615,158.7,-141.29999999999998,-65.7,82717
-0.022648941408173313,0.03407828126929251,1.004316029253087,-0.0534057615,0.0686645505,-0.0076293945,156.29999999999998,-138.9,-64.5,83002
-0.021664204825209258,0.03210272873194221,1.0053950365663589,0.0534057615,0.106811523,0.045776367,161.1,-138.9,-65.7,83288
-0.022525849335302807,0.03173231263118904,1.0047955880589858,0.061035156,0.1296997065,0.0,151.5,-143.7,-65.1,83573
-0.020925652387986212,0.03432522533646129,1.0039563601486632,0.0381469725,0.15258789,-0.061035156,158.7,-146.1,-65.1,83858
-0.02191038897095027,0.03222620076552661,1.0065939335811054,0.091552734,0.1449584955,-0.0534057615,156.29999999999998,-143.7,-65.7,84143
-0.021787296898079764,0.031608840597604645,1.005754705670783,0.0839233395,0.076293945,0.0381469725,153.9,-143.7,-66.3,84429
-0.020556376169374693,0.031608840597604645,1.0051552571634097,0.045776367,0.091552734,-0.0228881835,153.9,-138.9,-66.3,84717
-0.021664204825209258,0.032843560933448576,1.006354154178156,-0.0076293945,0.0076293945,0.045776367,156.29999999999998,-143.7,-65.7,85003
-0.02141802067946824,0.030991480429682677,1.0058745953722574,-0.045776367,0.0228881835,-0.106811523,153.9,-148.5,-64.5,85287
-0.021048744460856722,0.030621064328929498,1.0052751468648844,0.0534057615,0.0839233395,-0.106811523,151.5,-143.7,-64.5,85574
-0.021048744460856722,0.0342017533028769,1.005754705670783,0.0,0.122070312,-0.061035156,156.29999999999998,-141.29999999999998,-64.5,85858
-0.022525849335302807,0.03407828126929251,1.0062342644766815,-0.0228881835,0.1296997065,-0.061035156,151.5,-141.29999999999998,-66.89999999999999,86144
-0.02277203348104382,0.030127176194591924,1.00671382328258,0.061035156,0.015258789,-0.076293945,158.7,-146.1,-65.1,86430
-0.022033481043820777,0.03197925669835782,1.0059944850737321,0.061035156,0.0534057615,-0.030517578,156.29999999999998,-143.7,-65.1,86715
-0.021541112752338748,0.03222620076552661,1.003716580745714,0.0839233395,0.1144409175,0.0534057615,156.29999999999998,-143.7,-67.5,86999
-0.02535696701132447,0.02827509569082603,1.0055149262678336,0.0686645505,0.1296997065,0.0534057615,161.1,-146.1,-65.7,87291
-0.020556376169374693,0.03074453636251389,1.005035367461935,0.0534057615,0.0228881835,-0.1449584955,158.7,-143.7,-66.3,87575
-0.021294928606597735,0.03531300160513644,1.0058745953722574,0.0686645505,0.091552734,-0.061035156,158.7,-146.1,-65.7,87860
-0.020064007877892663,0.03272008889986418,1.005754705670783,0.015258789,0.0686645505,-0.0381469725,161.1,-138.9,-66.89999999999999,88145
-0.019694731659281144,0.030127176194591924,1.0068337129840548,0.076293945,0.0534057615,-0.045776367,163.5,-150.9,-66.89999999999999,88431
-0.016986706056129987,0.030868008396098285,1.0082723894017505,0.030517578,0.0228881835,-0.106811523,158.7,-146.1,-67.5,88715
-0.025480059084194977,0.029756760093838746,1.007073492387004,-0.213623046,-0.2212524405,0.1907348625,161.1,-146.1,-66.3,89002
-0.03249630723781388,0.04395604395604396,1.01007073492387,-0.350952147,-0.4806518535,0.1602172845,153.9,-141.29999999999998,-68.1,89286
-0.017232890201871,0.022348438078775158,1.0071933820884786,-0.3280639635,-0.5722045875,0.1754760735,156.29999999999998,-143.7,-65.7,89571
-0.02535696701132447,0.03309050500061736,1.0061143747752068,-0.0991821285,0.3890991195,0.076293945,161.1,-146.1,-65.7,89856
-0.02671097981290005,0.012841091492776886,1.0044359189545617,0.0839233395,0.640869138,-0.7247924775,156.29999999999998,-146.1,-67.5,90144
-0.08887247661250615,0.034819113470798864,1.003716580745714,0.366210936,0.900268551,-4.623413067,158.7,-146.1,-66.3,90429
-0.01981782373215165,0.07099641931102606,1.0094712864164967,0.534057615,0.259399413,-10.3073119695,158.7,-143.7,-65.1,90718
0.10081240768094535,0.07667613285590813,1.0112696319386165,0.8163452115000001,-0.1144409175,-10.765075639500001,153.9,-148.5,-65.1,91003
-0.07545544066962087,0.04642548462773182,1.002038124925069,0.259399413,-0.2822875965,0.9841918905,161.1,-150.9,-65.7,91289
-0.04419005416051206,0.008149154216569946,0.998321544179355,0.2975463855,-0.167846679,0.1602172845,158.7,-141.29999999999998,-67.5,91573
0.012678483505662235,0.019261637239165328,1.0099508452223953,1.2130737255,0.8163452115000001,-8.5372924455,161.1,-143.7,-66.89999999999999,91859
-0.050221565731166914,0.022718854179528337,1.005754705670783,1.0757446245,1.06811523,-9.1552734,158.7,-146.1,-66.3,92144
-0.0224027572624323,0.08062723793060872,1.0109099628341924,1.327514643,0.9231567345,-11.428832961,156.29999999999998,-146.1,-65.7,92429
-0.03126538650910882,0.07247808371403877,1.0110298525356671,0.625610349,0.91552734,-12.390136668,163.5,-143.7,-66.89999999999999,92714
-0.032373215164943375,0.05469811087788616,1.0074331614914278,0.1449584955,1.1215209915,-13.2827758245,161.1,-146.1,-65.1,92998
-0.010832102412604629,0.02197802197802198,1.0053950365663589,-0.1449584955,1.2588500925,-15.8157347985,161.1,-148.5,-66.3,93285
0.02535696701132447,0.03358439313495493,1.0101906246253447,-0.2822875965,1.8997192305,-14.1525267975,161.1,-141.29999999999998,-63.3,93571
0.02141802067946824,0.0593900481540931,1.0071933820884786,0.411987303,0.7553100555,-5.920410132,168.29999999999998,-136.5,-65.1,93855
-0.0072624322993599215,0.06395851339671564,1.0052751468648844,-0.137329101,-0.2365112295,-6.7214965545,163.5,-141.29999999999998,-66.89999999999999,94141
0.0006154603643525357,0.04988270156809483,1.0055149262678336,-0.2059936515,0.274658202,-10.192871052,163.5,-143.7,-66.89999999999999,94430
-0.013170851797144265,0.04642548462773182,1.003716580745714,-0.183105468,0.183105468,-10.101318318,161.1,-141.29999999999998,-65.7,94717
-0.04615952732644018,0.03531300160513644,1.0111497422371418,-0.6179809545,-0.0686645505,-7.263183564,165.9,-138.9,-65.7,95002
-0.03705071393402265,-0.0032102728731942215,1.0122287495504136,-1.846313469,-0.0686645505,-8.377075161,165.9,-138.9,-67.5,95287
-0.05945347119645495,-0.020990245709346832,1.0312912120848818,-3.7765502775,0.0839233395,-10.22338863,165.9,-146.1,-66.89999999999999,95571
-0.06967011324470704,0.0023459686381034697,1.0358470207409183,-9.963989217,0.2517700185,-8.483886684,161.1,-138.9,-64.5,95861
-0.031142294436238307,0.054080750709964195,1.0088718379091237,-16.235351496,0.2975463855,-5.996704077,165.9,-136.5,-65.1,96147
-0.04899064500246184,0.11618718360291394,1.0176237861167725,-17.059326102,0.4959106425,-9.246826134,168.29999999999998,-141.29999999999998,-67.5,96432
-0.0637616937469227,0.14804296826768737,1.0414818367102265,-20.0424193515,0.701904294,-15.319824156,163.5,-138.9,-67.5,96717
-0.022648941408173313,0.15026546487220643,1.0222994844742836,-27.5955199065,0.747680661,-20.59936515,165.9,-136.5,-66.3,97004
-0.019448547513540127,0.11729843190517347,0.9959237501498621,-22.567748931,-4.2037963695,-16.5634154595,170.7,-134.1,-66.3,97289
0.02277203348104382,0.12841091492776885,1.0023977940294928,-14.1983031645,-8.9492797485,-13.1301879345,165.9,-124.5,-67.5,97574
0.015386509108813392,0.11915051240893937,0.999640330895576,-10.5972289605,-7.369995087,-11.123657181,165.9,-131.7,-66.89999999999999,97858
-0.02535696701132447,0.09754290653167058,0.99664308835871,-7.93457028,-2.105712882,-7.3928832705,165.9,-134.1,-67.5,98143
-0.03348104382077794,0.08173848623286825,0.9912480517923511,-4.226684553,3.784179672,-7.156372041,173.1,-126.89999999999999,-66.3,98430
-0.03249630723781388,0.1024817878750463,0.9850137873156696,0.3890991195,8.9797973265,-12.237548778,173.1,-136.5,-66.3,98717
-0.03175775480059084,0.13791826151376713,1.0040762498501379,2.8610229375,14.785766541,-18.997192305,168.29999999999998,-141.29999999999998,-66.89999999999999,99002
-0.03520433284096504,0.18829485121619954,1.0591056228269993,4.043579085,19.3557738465,-25.466918841000002,175.5,-138.9,-66.89999999999999,99289
-0.023510585918266862,0.266329176441536,1.0700155856611917,5.203247049,20.629882728,-30.5252073945,170.7,-126.89999999999999,-68.1,99576
0.08173313638601674,0.20187677491048278,1.0217000359669104,10.5209350155,6.0653686275,-32.577514515,182.7,-134.1,-68.7,99862
0.0638847858197932,0.147302136066181,1.002757463133917,14.526367128,-6.301879857,-27.3208617045,185.1,-134.1,-68.7,100146
0.025726243229935993,0.12668230645758735,0.9778204052271909,15.8309935875,-15.8004760095,-18.630981369,182.7,-141.29999999999998,-68.1,100431
-0.02018709995076317,0.10507470058031856,0.945210406426088,14.6865844125,-17.669677662,-7.263183564,180.29999999999998,-141.29999999999998,-67.5,100715
-0.0673313638601674,0.09149277688603531,0.9177556647883947,14.175414981,-15.045165954,2.6473998915,180.29999999999998,-146.1,-71.1,101004
-0.052806499261447565,0.06790961847141623,0.9308236422491308,15.335082945,-11.154174759,4.852294902,185.1,-146.1,-69.89999999999999,101289
-0.03938946331856229,0.08322015063588098,0.9682292291092195,15.9378051105,-4.3258666815,0.9689331015,185.1,-146.1,-68.7,101574
-0.06363860167405219,0.12544758612174342,1.0227790432801822,12.222289989,2.975463855,-5.142211893,187.5,-148.5,-68.7,101859
-0.07951747907434761,0.1980491418693666,1.0930344083443233,0.6637573215,13.458251898,-16.082763606,185.1,-148.5,-69.89999999999999,102148
-0.013047759724273756,0.20113594270897642,1.1107780841625705,-9.216308556,10.879516557,-21.377563389,192.29999999999998,-158.1,-68.7,102433
0.016986706056129987,0.1694036300777874,1.0709747032729888,-15.0375365595,7.339477509,-27.0462035025,189.9,-155.7,-69.89999999999999,102718
0.0033234859675036928,0.12495369798740585,1.020860808056588,-11.2991332545,3.936767562,-28.38134754,197.1,-160.5,-68.7,103003
0.0029542097488921715,0.0991480429682677,1.010790073132718,-4.7378539845,-0.0686645505,-24.1470335925,194.7,-162.9,-68.1,103288
0.004431314623338257,0.06790961847141623,1.008751948207649,-1.4877319275,-5.2261352325,-17.1432494415,194.7,-155.7,-66.89999999999999,103575
0.008739537173806006,0.06729225830349427,1.0106701834312433,1.7013549735,-8.163452115,-6.5078735085,197.1,-155.7,-69.89999999999999,103861
-0.004185130477597243,0.10100012347203359,1.027574631339168,7.675170867,-6.912231417,0.900268551,192.29999999999998,-162.9,-68.7,104145
-0.021541112752338748,0.13791826151376713,1.0351276825320705,11.215209915,-3.4255981305,3.8070678555,189.9,-160.5,-70.5,104431
-0.03545051698670606,0.08322015063588098,1.01007073492387,2.2811889555000002,2.6626586805,-4.470825177,197.1,-160.5,-68.7,104717
-0.0206794682422452,0.07704654895666131,0.9882508092554849,-1.6326904230000001,1.144409175,-8.026123014,189.9,-165.29999999999998,-68.7,105004
0.005908419497784343,0.07889862946042721,0.9893298165687567,-2.1591186435,-0.0076293945,-9.384155235,192.29999999999998,-174.9,-68.1,105289
-0.006154603643525357,0.08951722434868502,0.9956839707469128,-3.311157213,0.473022459,-7.4539184265,189.9,-170.1,-68.1,105575
-0.017971442639094042,0.11248302259538215,1.0041961395516126,-1.281738276,0.0,-6.286621068,185.1,-177.29999999999998,-68.7,105858
-0.0206794682422452,0.15384615384615385,1.017144227310874,-1.4572143495,-2.4490356345,-7.583618133,187.5,-172.5,-68.7,106146
-0.02141802067946824,0.15705642671934808,1.0015585661191704,-5.9585571045,-6.088256811,-10.9024047405,192.29999999999998,-172.5,-68.1,106432
-0.008985721319547021,0.1597728114582047,0.9762618391080207,-5.0888061315,-8.8729858035,-9.7885131435,187.5,-174.9,-67.5,106717
-0.02449532250123092,0.1690332139770342,0.9780601846301402,2.5100707905,-8.3236693995,-3.5018920755,182.7,-172.5,-67.5,107002
-0.03729689807976366,0.17384862328682554,0.9947248531351157,7.9574584635,-5.03540037,7.9574584635,177.9,-182.1,-65.7,107287
-0.011693746922698178,0.20076552660822325,1.0104304040282939,8.529663051,-4.974365214,8.041381803,180.29999999999998,-177.29999999999998,-63.9,107573
0.023018217626784836,0.18841832324978391,1.0105502937297686,10.437011676000001,-5.020141581,9.796142538,175.5,-182.1,-66.3,107860
0.011570654849827671,0.23768366464995677,1.0217000359669104,11.3601684105,-4.8751830855,11.947631787,173.1,-186.9,-65.1,108147
-0.03532742491383555,0.2432399061612545,1.0368061383527154,6.622314426,-5.9738158935,10.604858355,165.9,-196.5,-64.5,108433
-0.0482520925652388,0.27954068403506604,1.0462774247692124,4.638671856,-6.5383910865,13.4811400815,173.1,-198.9,-65.7,108720
-0.06831610044313147,0.28423262131127297,1.0478359908883828,7.293701142,-4.9057006635,10.9329223185,165.9,-191.7,-62.699999999999996,109006
-0.05366814377154111,0.3050993949870354,1.0627023138712384,12.100219677,-0.5264282205,-1.9302368085,165.9,-191.7,-63.9,109291
-0.009970457902511078,0.24867267563896778,1.0362066898453424,15.151977477,6.56127927,-14.328002871,163.5,-198.9,-62.699999999999996,109576
0.01624815361890694,0.2575626620570441,1.0159453302961277,12.0315551265,3.8528442225,-21.2783812605,161.1,-191.7,-62.099999999999994,109864
0.03803545051698671,0.22731201382886776,0.9594772809015706,13.7863158615,1.693725579,-17.715454029,168.29999999999998,-201.29999999999998,-61.5,110150
0.0827178729689808,0.2790467959007285,0.9424529432921712,26.5579222545,-0.045776367,-12.9776000445,161.1,-206.1,-59.699999999999996,110436
0.07730182176267848,0.2823805408075071,0.9530032370219398,36.170959324500004,-1.5258789,-6.4773559305,153.9,-201.29999999999998,-62.099999999999994,110722
0.03434268833087149,0.219533275713051,0.9919673900011989,40.313720538,-4.135131819,6.9198608115,153.9,-203.7,-59.699999999999996,111008
0.0048005908419497785,0.23076923076923078,1.020501138952164,30.3726195045,-9.7732543545,11.4822387225,144.29999999999998,-203.7,-59.099999999999994,111295
0.019571639586410634,0.25743919002345966,1.0276945210406425,20.919799719,-13.6642455495,17.654418873,156.29999999999998,-198.9,-58.5,111581
0.02018709995076317,0.22002716384738857,1.0173840067138233,14.282226504,-11.947631787,23.391723537,144.29999999999998,-206.1,-59.099999999999994,111866
0.0742245199409158,0.31682923817755276,1.007073492387004,21.347045811,-10.009765584,5.996704077,132.29999999999998,-206.1,-57.9,112152
0.018709995076317085,0.212618841832325,1.0017983455221195,16.5176390925,-7.354736298,0.1144409175,139.5,-201.29999999999998,-57.3,112439
0.022648941408173313,0.1671811334732683,1.002757463133917,21.4004515725,-7.4539184265,-2.1286010655,132.29999999999998,-203.7,-55.5,112725
0.01624815361890694,0.13828867761452032,1.0244574991008273,23.0941771515,-7.034301729,-8.285522427,132.29999999999998,-203.7,-54.3,113010
0.05009847365829641,0.13544882084207926,1.0135475362666346,23.147582913,-5.813598609,-16.1819457345,127.5,-208.5,-54.3,113295
0.05748399803052683,0.1492776886035313,1.0165447788035007,22.857665922,-1.266479487,-22.2854613345,122.69999999999999,-206.1,-56.1,113579
0.07188577055637617,0.042103963452278056,0.9551612516484834,16.3803099915,1.6250610285,-29.632568238,127.5,-201.29999999999998,-53.699999999999996,113867
0.09342688330871492,0.017409556735399432,0.9068457019542021,21.453857334,-0.5416870095,-36.148071141,125.1,-203.7,-54.3,114153
-0.03188084687346135,-0.0918631929867885,0.879630739719458,14.5187377335,-8.361816372,-23.65112295,125.1,-208.5,-51.9,114439
-0.03483505662235352,0.02605259908630695,0.9800983095552092,16.113281184,-10.543823199,-8.3541869775,125.1,-201.29999999999998,-54.3,114725
-0.0654849827671098,-0.01222373132485492,1.0282939695480158,0.4501342755,-6.362915013,-2.2659301665,120.3,-198.9,-52.5,115013
-0.041482028557360905,-0.08729472774416594,1.0010790073132718,0.6179809545,-1.556396478,-5.020141581,122.69999999999999,-201.29999999999998,-53.699999999999996,115298
0.033357951747907434,0.07111989134461044,1.0211005874595371,17.0211791295,1.3961791935,-8.422851528,113.1,-201.29999999999998,-53.1,115584
0.06585425898572132,0.11063094209161625,0.9940055149262679,10.818481401,2.7542114145,-13.702392522,113.1,-196.5,-52.5,115869
0.04492860659773511,-0.034819113470798864,0.9256683850857211,3.4255981305,-0.701904294,-17.471313405,113.1,-206.1,-52.5,116156
0.08099458394879369,-0.011729843190517349,0.9545618031411102,14.099121036,-7.965087858,-17.562866139,113.1,-196.5,-52.5,116444
0.062284588872476614,-0.0558093591801457,1.017144227310874,9.7122191985,-12.0315551265,-18.341064378,110.7,-198.9,-51.3,116730
0.012186115214180207,-0.04012841091492777,1.0929145186428486,3.326416002,-11.90185542,-20.90454093,105.89999999999999,-198.9,-52.5,117015
0.004062038404726735,-0.10371650821089023,1.0768492986452465,-9.6664428315,-9.9258422445,-24.4064330055,105.89999999999999,-198.9,-51.9,117300
0.01563269325455441,-0.06976169897518213,1.0387243735763099,-6.805419894,-8.605956996,-25.466918841000002,103.5,-194.1,-54.3,117586
0.008739537173806006,0.031238424496851463,1.0502337849178756,-2.13623046,-5.8212280035,-25.3829955015,103.5,-196.5,-51.3,117872
-0.04086656819300837,-0.019508581306334115,1.0483155496942813,-7.888793913,-2.059936515,-24.2385863265,105.89999999999999,-186.9,-53.1,118156
-0.030649926144756277,-0.06753920237066305,1.0450785277544659,-11.856079053,-0.8468627895,-20.6069945445,98.7,-194.1,-52.5,118441
-0.006154603643525357,-0.10692678108408446,1.0493945570075531,-14.923095642,-1.1062622025,-15.0833129265,98.7,-196.5,-54.9,118725
0.01809453471196455,-0.06618101000123472,1.051432681932622,-9.4070434185,-2.6626586805,-9.689331015,101.1,-182.1,-53.699999999999996,119013
0.07447070408665682,-0.1061859488825781,1.0139072053710587,-19.134521406,-4.180908186,-17.6620482675,105.89999999999999,-186.9,-53.699999999999996,119298
0.0705317577548006,-0.16100753179404864,0.9609159573192663,-16.159057551,-4.837036113,-23.391723537,96.3,-191.7,-53.699999999999996,119585
0.028311176760216644,-0.176194591924929,0.9425728329936458,-3.96728514,-2.182006827,-22.2091673895,103.5,-177.29999999999998,-54.3,119870
-0.04751354012801576,-0.19113470798864057,0.9702673540342884,1.7318725515,-0.3128051745,-17.837524341,96.3,-186.9,-53.699999999999996,120158
-0.06179222058099458,-0.1671811334732683,0.981177316868481,-0.4806518535,-1.281738276,-12.8707885215,101.1,-182.1,-54.3,120443
-0.03988183161004431,-0.17928139276453883,0.974103824481477,-4.88281248,-0.900268551,-7.431030243,98.7,-186.9,-55.5,120729
-0.0051698670605613,-0.20113594270897642,1.0039563601486632,-6.317138646,1.083374019,-5.020141581,98.7,-182.1,-56.1,121016
0.01070901033973412,-0.13767131744659836,1.021819925668385,-4.7073364065,4.470825177,-7.385253876,98.7,-184.5,-55.5,121327
0.08370260955194485,-0.03691813804173355,1.0437597410382449,2.2048950105,3.417968736,-13.1454467235,98.7,-186.9,-55.5,121615
0.1120137863121615,0.009136930485245092,1.0425608440234984,7.110595674,-2.4642944235,-9.124755822000001,93.89999999999999,-184.5,-57.3,121902
0.1259231905465288,0.013211507593530066,1.0274547416376933,13.305664008,-7.2708129585,-2.349853506,103.5,-194.1,-56.1,122188
0.09798129000492369,-0.02913939992591678,1.0436398513367702,19.0200804885,-8.972167932,0.7553100555,101.1,-182.1,-54.9,122474
0.0499753815854259,-0.06432892949746882,1.0558686008871838,22.1176146555,-8.8424682255,-4.3716430485,91.5,-189.29999999999998,-57.3,122759
0.017479074347612013,-0.06025435238918385,1.061503416856492,19.699096599,-6.3858031965,-12.2070312,93.89999999999999,-191.7,-56.699999999999996,123044
-0.0054160512063023145,-0.049388813433757256,1.061863085960916,13.336181586,-3.4408569195,-16.9143676065,91.5,-189.29999999999998,-57.3,123329
-0.019694731659281144,-0.05889616001975553,1.0234983814890302,8.4457397115,-1.785278313,-19.409179608,98.7,-196.5,-56.1,123614
-0.00775480059084195,-0.07408322015063588,0.9875314710466371,7.7743529955,-0.3585815415,-19.790649333,89.1,-196.5,-57.9,123902
0.0004923682914820286,-0.06976169897518213,0.9616352955281141,7.095336885,-0.8010864225,-13.4811400815,98.7,-196.5,-56.699999999999996,124187
0.016125061546036434,-0.08568959130756884,0.9748231626903249,1.083374019,1.9912719645,-7.797241179,96.3,-198.9,-56.699999999999996,124472
0.04160512063023141,-0.11063094209161625,1.0184630140270952,-5.2413940215,3.9901733235,-1.174926753,91.5,-203.7,-57.3,124760
0.044436238306253074,-0.07840474132608964,1.0468768732765856,-8.8729858035,0.61035156,2.838134754,96.3,-208.5,-57.3,125046
0.040497291974396846,-0.01024817878750463,1.0478359908883828,-9.780883749000001,-4.5776367,3.6697387545,86.7,-201.29999999999998,-54.9,125331
0.042712949286065977,0.02358315841461909,1.0197818007433161,-10.0479125565,-8.6288451795,4.8294067185,89.1,-206.1,-57.3,125616
0.02621861152141802,0.0342017533028769,0.9917276105982497,-6.6757201875,-11.9094848145,7.4996947935,96.3,-208.5,-56.1,125901
0.026464795667159036,0.018767749104827758,0.9925668385085721,-1.510620111,-12.893676705,10.208129841,86.7,-206.1,-57.3,126185
0.054406696208764156,-0.00012347203358439315,1.041961395516125,2.853393543,-9.2697143175,10.238647419,91.5,-206.1,-57.3,126474
0.03877400295420975,0.03444869737004568,1.041961395516125,-0.5722045875,-7.0266723345,5.7296752695,96.3,-213.29999999999998,-56.699999999999996,126759
0.01501723289020187,0.07803432522533646,1.048075770291332,-3.8528442225,-2.716064442,1.388549799,84.3,-210.9,-56.1,127047
-0.0008616445100935499,0.06914433880726016,1.0442392998441434,-3.158569323,2.4337768455,-1.9302368085,86.7,-213.29999999999998,-58.5,127331
-0.010093549975381585,0.05087047783676997,1.041961395516125,0.1144409175,5.325317361,-3.1814575065,93.89999999999999,-215.7,-57.9,127619
0.01563269325455441,0.03914063464625262,1.0300923150701355,1.0910034135,3.3035278185,-2.777099598,84.3,-215.7,-57.9,127903
0.011939931068439193,0.02605259908630695,1.0222994844742836,-0.0381469725,-1.693725579,-0.2365112295,86.7,-213.29999999999998,-56.699999999999996,128188
0.014771048744460856,0.00987776268675145,1.0088718379091237,-2.151489249,-6.774902316,5.630493141,81.89999999999999,-218.1,-57.3,128472
0.0009847365829640572,0.00950734658599827,0.9868121328377892,-3.402709947,-9.536743125,11.993408154,84.3,-218.1,-60.3,128758
-0.03126538650910882,0.031238424496851463,1.007792830595852,-3.616332993,-8.7356567025,14.114379825,81.89999999999999,-215.7,-58.5,129045
-0.05256031511570655,0.03296703296703297,1.0081524997002758,-5.142211893,-4.3563842595,8.8882445925,77.1,-215.7,-57.9,129331
-0.06019202363367799,0.02802815162365724,0.9985613235823043,-7.3928832705,1.22070312,3.0288696165,72.3,-220.5,-56.699999999999996,129616
-0.05723781388478582,0.030991480429682677,0.999640330895576,-11.6958617685,5.7754516365,-0.8010864225,74.7,-220.5,-58.5,129901
-0.00812407680945347,0.06877392270650698,0.9816568756743795,-15.792846615,7.461547821,-2.6168823135,81.89999999999999,-220.5,-59.099999999999994,130188
0.026587887740029542,0.08025682182985554,0.9635535307517085,-18.234252855,8.6898803355,-1.815795891,79.5,-215.7,-59.099999999999994,130474
0.05723781388478582,0.08396098283738733,0.9443711785157655,-17.105102469,8.972167932,-0.350952147,81.89999999999999,-213.29999999999998,-58.5,130758
0.09601181683899557,0.09988887516977404,0.9338208847859969,-13.3438109805,7.675170867,1.098632808,74.7,-210.9,-57.9,131044
0.08825701624815362,0.15038893690579083,1.0009591176117971,-7.766723601,-4.7531127735,8.6288451795,81.89999999999999,-213.29999999999998,-61.5,131329
-0.12124569177744954,0.226447709593777,1.101786356551972,-14.053344669,-3.0746459835,6.8588256555000005,72.3,-213.29999999999998,-60.3,131618
-0.07594780896110291,0.04889492529941968,1.0081524997002758,-24.139404198,3.158569323,-11.108398392,84.3,-215.7,-58.5,131909
0.0673313638601674,0.01889122113841215,1.0351276825320705,-16.082763606,9.5901488865,-13.1149291455,74.7,-215.7,-59.699999999999996,132197
-0.014278680452978828,0.06753920237066305,1.008032609998801,-21.05712882,6.011962866,-2.59399413,77.1,-215.7,-57.3,132483
0.027695716395864108,0.07124336337819484,1.0049154777604603,-27.450561411,-3.35693358,-1.998901359,84.3,-210.9,-61.5,132769
0.0,0.07507099641931103,1.0226591535787075,-26.3748167865,-3.7918090665,-2.029418937,79.5,-208.5,-60.9,133053
-0.00430822255046775,0.08692431164341277,1.0328497782040522,-21.377563389,-0.5416870095,1.815795891,81.89999999999999,-208.5,-61.5,133339
0.009601181683899557,0.0898876404494382,1.0489149982016546,-14.045715274500001,2.9678344605,5.615234352,84.3,-206.1,-61.5,133625
0.0066469719350073855,0.055191999012223734,1.0418415058146506,3.555297837,6.6146850315,2.2048950105,84.3,-208.5,-59.699999999999996,133910
0.051452486459871986,0.04654895666131621,1.0145066538784318,6.6299438205,5.599975563,0.0839233395,79.5,-208.5,-59.699999999999996,134198
0.049236829148202856,0.03383133720212372,1.0062342644766815,5.8364867925,1.9760131755,0.7553100555,84.3,-215.7,-60.9,134484
0.03581979320531758,0.012717619459192493,1.0015585661191704,3.1051635615,-4.5547485165,3.4408569195,81.89999999999999,-215.7,-59.699999999999996,134768
-0.0004923682914820286,-0.003457216940363008,0.9898093753746553,-0.854492184,-8.8577270145,6.8130492885,81.89999999999999,-213.29999999999998,-60.3,135054
-0.02794190054160512,0.0013581923694283246,0.9829756623906006,-4.165649397,-9.0408324825,10.2157592355,79.5,-210.9,-60.3,135340
0.006400787789266372,0.0592665761205087,0.9818966550773288,-5.2719115995,-5.6686401135,11.077880814,86.7,-215.7,-60.9,135625
0.016125061546036434,0.09396221755772317,0.9760220597050714,-5.584716774,-0.5416870095,9.490966758,84.3,-206.1,-61.5,135909
0.11287543082225504,0.11174219039387578,1.0194221316388923,0.0,6.6452026095,2.700805653,86.7,-206.1,-60.3,136193
0.06019202363367799,0.056303247314483267,0.9894497062702314,-15.853881771,6.0653686275,2.2354125885,79.5,-210.9,-59.699999999999996,136477
0.06006893156080748,0.024570934683294233,1.0119889701474643,-19.9050902505,1.617431634,0.946044918,81.89999999999999,-206.1,-59.699999999999996,136766
0.048867552929591336,0.08531917520681566,1.0274547416376933,-18.5317992405,0.198364257,5.065917948,81.89999999999999,-210.9,-60.3,137051
0.019202363367799114,0.09494999382639832,1.0269751828317948,-16.5176390925,0.3433227525,6.286621068,79.5,-206.1,-63.3,137337
0.006154603643525357,0.0808741819977775,1.024577388802302,-12.0925902825,0.9689331015,2.944946277,81.89999999999999,-208.5,-60.9,137622
-0.005662235352043328,0.06432892949746882,1.0101906246253447,-8.7356567025,2.44140624,-0.7095336885,79.5,-213.29999999999998,-62.099999999999994,137910
-0.01809453471196455,0.05420422274354859,1.0103105143268194,-7.705688445,3.677368149,-2.6321411025,77.1,-208.5,-60.9,138195
0.0014771048744460858,0.052969502407704656,1.0136674259681093,-6.8283080775,3.5018920755,-3.036499011,77.1,-201.29999999999998,-63.9,138479
0.05256031511570655,0.02839856772441042,1.0064740438796307,-4.7683715625,2.868652332,-4.516601544,77.1,-206.1,-62.099999999999994,138764
0.05945347119645495,0.0046919372762069395,0.9971226471646085,-5.432128884,1.7166137625,-4.653930645,86.7,-208.5,-62.099999999999994,139049
0.07114721811915313,0.013211507593530066,0.9876513607481118,-8.2015990875,-0.366210936,-5.1040649205,84.3,-208.5,-62.699999999999996,139337
0.11681437715411128,-0.004815409309791332,1.002757463133917,-11.7111205575,-2.700805653,-4.043579085,81.89999999999999,-206.1,-60.9,139623
-0.008862629246676515,0.03741202617607112,1.0357271310394438,-5.6076049575,4.150390608,0.1449584955,79.5,-210.9,-62.099999999999994,139908
-0.10376661742983752,0.09322138535621682,1.015825440594653,1.67846679,10.467529254,-0.2670288075,81.89999999999999,-210.9,-63.3,140194
0.0027080256031511572,0.01777997283615261,1.0085121688046996,-0.900268551,5.8822631595,-3.0517578,89.1,-203.7,-60.9,140482
0.023387493845396356,0.023336214347450302,1.0047955880589858,-2.8915405155,1.5792846615,4.760742168,86.7,-206.1,-62.099999999999994,140767
0.0019694731659281144,0.009754290653167057,0.999640330895576,-3.4561157085,0.213623046,12.924194283,81.89999999999999,-206.1,-60.9,141052
0.033727227966518954,0.012347203358439314,1.0003596691044239,-5.5923461685,0.549316404,9.2086791615,84.3,-203.7,-62.699999999999996,141338
0.01932545544066962,0.024941350784047415,1.0143867641769573,-5.355834939,2.319335928,3.4561157085,81.89999999999999,-203.7,-60.3,141623
0.003692762186115214,0.04889492529941968,1.022898932981657,-2.4490356345,4.7378539845,-2.273559561,79.5,-203.7,-62.099999999999994,141912
0.014524864598719843,0.04296826768736881,1.0153458817887544,-0.503540037,4.074096663,-5.615234352,74.7,-208.5,-61.5,142199
0.04025110782865583,-0.023830102481787876,1.0103105143268194,-0.2517700185,1.8234252855,-3.8070678555,77.1,-208.5,-62.099999999999994,142485
0.017848350566223536,-0.047042844795653786,1.008392279103225,0.0686645505,0.8010864225,0.0534057615,79.5,-201.29999999999998,-60.3,142772
0.012678483505662235,-0.044449932090381526,1.0025176837309675,-0.030517578,0.900268551,0.778198239,81.89999999999999,-201.29999999999998,-62.699999999999996,143059
0.016863613983259477,-0.04741326089640696,0.99664308835871,-0.3738403305,2.4337768455,0.137329101,74.7,-208.5,-62.699999999999996,143344
0.0206794682422452,0.01889122113841215,1.0086320585061743,-0.4043579085,5.8822631595,-1.846313469,81.89999999999999,-203.7,-62.699999999999996,143630
0.019694731659281144,-0.00432152117545376,1.0142668744754826,-0.3890991195,4.7531127735,-1.6555786065,86.7,-206.1,-62.099999999999994,143914
0.02018709995076317,-0.025435238918384985,1.0165447788035007,-0.2670288075,1.8997192305,2.868652332,84.3,-196.5,-61.5,144200
0.01070901033973412,-0.04025188294851216,1.012108859848939,-0.0076293945,-0.137329101,5.508422829,79.5,-201.29999999999998,-62.699999999999996,144487
0.01587887740029542,-0.055315471045808126,1.0002397794029494,-0.30517578,-0.4196166975,6.2332153065,84.3,-201.29999999999998,-61.5,144777
0.005292959133431807,-0.03543647363872083,1.003716580745714,-1.4266967715,1.5945434505,6.774902316,81.89999999999999,-203.7,-62.699999999999996,145064
0.0029542097488921715,-0.010495122854673416,1.0109099628341924,-4.0512084795,3.9901733235,4.4937133605,79.5,-201.29999999999998,-62.699999999999996,145351
0.0030773018217626785,-0.01456969996295839,0.9958038604483875,-6.149291967,6.027221655,-0.15258789,79.5,-191.7,-62.099999999999994,145636
-0.009354997538158542,-0.07963946166193357,1.012828198057787,-4.2953491035,8.8119506475,-4.394531232,84.3,-196.5,-66.3,145922
0.03680452978828164,-0.08507223113964688,1.0239779402949287,0.320434569,4.486083966,-1.1520385695,86.7,-198.9,-63.3,146206
0.05822255046774988,-0.04975922953451043,1.0435199616352955,-1.1367797805,1.800537102,5.8364867925,86.7,-196.5,-62.699999999999996,146491
0.023018217626784836,-0.06741573033707865,1.0149862126843303,-11.3143920435,0.244140624,10.299682575,79.5,-194.1,-63.9,146776
0.03348104382077794,-0.0845783430053093,0.9893298165687567,-12.1994018055,0.0534057615,9.597778281,86.7,-194.1,-63.9,147064
0.04086656819300837,-0.06865045067292258,0.9702673540342884,-6.2637328845,1.1367797805,7.537841766,84.3,-194.1,-63.3,147350
0.02843426883308715,-0.07149030744536362,0.9816568756743795,-0.0381469725,2.502441396,5.4397582785,84.3,-189.29999999999998,-63.9,147635
0.025603151157065487,-0.09075194468452895,0.9971226471646085,4.1275024245,2.44140624,2.929687488,84.3,-194.1,-63.3,147920
0.013293943870014771,-0.0827262625015434,1.0185829037285696,6.500244114,2.2048950105,1.785278313,84.3,-189.29999999999998,-63.3,148207
-0.028557360905957656,-0.1385356216816891,1.0387243735763099,-1.281738276,5.981445288,-3.5324096535,84.3,-182.1,-63.9,148492
-0.019940915805022157,-0.14236325472280528,1.027934300443592,-6.851196261,8.1558227205,-6.835937472,84.3,-182.1,-63.9,148777
0.0029542097488921715,-0.11754537597234227,1.0215801462654357,-13.671874944,6.423950169,-7.7896117845,79.5,-182.1,-65.1,149061
-0.008493353028064993,-0.1185331522410174,1.0111497422371418,-19.8364257,2.014160148,-4.837036113,81.89999999999999,-182.1,-64.5,149346
-0.04222058099458395,-0.10717372515125324,1.0170243376093993,-18.2418822495,-0.2670288075,-0.0076293945,84.3,-174.9,-62.699999999999996,149634
-0.05945347119645495,-0.08791208791208792,1.0308116532789833,-15.10620111,1.0299682575,3.555297837,86.7,-179.7,-63.3,149920
-0.05157557853274249,-0.10803802938634399,1.039683491188107,-16.311645441,3.1356811395,4.8141479295,86.7,-172.5,-63.3,150205
-0.03532742491383555,-0.11186566242746018,1.0160652199976021,-16.967773368,4.4631957825,3.875732406,84.3,-167.7,-64.5,150490
-0.011078286558345642,-0.12495369798740585,0.9989209926867282,-13.0996703565,5.126953104,5.905151343,84.3,-162.9,-63.3,150778
-0.025480059084194977,-0.1532287936782319,1.013067977460736,-8.453369106,1.7776489185,12.8555297325,81.89999999999999,-167.7,-63.3,151063
-0.02535696701132447,-0.15150018520805036,1.022179594772809,-10.52856441,-0.106811523,13.8778685955,79.5,-165.29999999999998,-62.699999999999996,151348
0.024372230428360415,-0.0917397209532041,1.019182352235943,-12.6876830535,-0.442504881,13.4506225035,84.3,-162.9,-63.9,151633
0.08850320039389463,-0.02210149401160637,0.9663109938856252,-11.978149365,1.0299682575,15.0527953485,81.89999999999999,-165.29999999999998,-63.9,151917
0.07471688823239783,-0.12100259291270528,0.9743436038844263,20.385742104,0.6790161105,26.55029286,81.89999999999999,-162.9,-62.699999999999996,152207
0.12998522895125553,0.12964563526361278,1.073612276705431,45.455932431,-6.774902316,25.1083372995,79.5,-170.1,-63.9,152492
0.08714918759231906,-0.04284479565378442,1.0310514326819327,24.703979391,-10.803222612,15.71655267,81.89999999999999,-172.5,-62.099999999999994,152777
0.04197439684884294,-0.14446227929373998,0.974463493585901,28.3584593565,-13.977050724,15.4495238625,81.89999999999999,-172.5,-62.099999999999994,153062
-0.05243722304283604,-0.11359427089764168,1.0059944850737321,31.707763542,-9.3460082625,16.8075560835,79.5,-167.7,-60.3,153349
-0.07323978335795175,-0.08013334979627114,1.0134276465651602,31.9290159825,-4.196166975,15.2206420275,74.7,-170.1,-60.9,153633
-0.07483998030526834,-0.02716384738856649,1.0226591535787075,26.962280163,3.0746459835,8.117675748,77.1,-177.29999999999998,-59.099999999999994,153919
-0.06560807483998031,-0.025064822817631807,1.0125884186548375,18.218994066,8.7814330695,-0.3433227525,77.1,-179.7,-59.099999999999994,154204
-0.024741506646971934,0.06556364983331275,1.0147464332813811,14.5645141005,11.5280150895,-9.0408324825,77.1,-177.29999999999998,-60.3,154490
0.02031019202363368,0.055191999012223734,1.0297326459657115,9.872436483,11.1465453645,-11.001586869,81.89999999999999,-184.5,-57.9,154778
0.03988183161004431,0.05914310408692431,1.0503536746193503,10.772705034,4.8751830855,-5.9585571045,81.89999999999999,-174.9,-59.699999999999996,155064
0.03902018709995076,0.02592912705272256,1.0483155496942813,16.5481566705,-4.1885375805,3.5171508645,79.5,-177.29999999999998,-58.5,155349
0.015386509108813392,0.09396221755772317,1.070615034168565,22.0718382885,-9.597778281,10.3988647035,81.89999999999999,-177.29999999999998,-58.5,155634
0.0054160512063023145,0.09741943449808618,0.9858530152259921,15.5410765965,-3.143310534,3.723144516,79.5,-182.1,-59.699999999999996,155922
-0.024002954209748892,-0.06050129645635264,0.9473684210526315,17.6925658455,3.219604479,-1.2130737255,77.1,-184.5,-58.5,156208
-0.04419005416051206,-0.06358809729596246,0.9583982735882988,21.66748038,6.057739233,-4.013061507,74.7,-184.5,-59.099999999999994,156493
-0.04222058099458395,-0.017533028768983824,0.9659513247812013,14.999389587,7.4844360045,-4.8141479295,86.7,-184.5,-57.9,156778
0.004185130477597243,-0.05333991850845783,0.9838148903009232,-0.9841918905,6.790161105,-4.7988891405,79.5,-189.29999999999998,-57.3,157063
0.07607090103397342,0.05457463884430177,0.9905287135835031,-8.5983276015,2.9830932495,-3.96728514,81.89999999999999,-189.29999999999998,-55.5,157352
0.0637616937469227,0.07000864304235091,0.9917276105982497,-5.889892554,-1.8692016525,0.8468627895,79.5,-184.5,-56.699999999999996,157637
0.03089611029049729,0.061118656624274605,1.0155856611917036,4.2953491035,-7.3165893255,7.6828002615,81.89999999999999,-184.5,-57.9,157925
-0.01292466765140325,0.08581306334115323,0.9888502577628582,13.4201049255,-9.735107382,7.7133178395,89.1,-184.5,-56.1,158210
-0.023141309699655343,-0.018150388936905792,0.9576789353794509,11.4974975115,-5.554199196,0.1754760735,74.7,-186.9,-54.9,158497
-0.024002954209748892,-0.11989134461044573,0.888742357031531,18.46313469,-2.3574829005,-3.295898424,86.7,-191.7,-57.3,158781
-0.023510585918266862,-0.05704407951598963,0.8952164009111617,20.9121703245,-1.4266967715,-3.4408569195,79.5,-189.29999999999998,-56.699999999999996,159068
-0.013293943870014771,-0.008149154216569946,0.9115214003117132,6.1721801505,0.4348754865,-4.196166975,91.5,-194.1,-58.5,159353
-0.044066962087641555,-0.08173848623286825,0.9201534588178876,-7.339477509,3.2882690295,-1.5335082945,84.3,-191.7,-55.5,159639
-0.06425406203840472,-0.01963205333991851,0.9699076849298646,-6.9503783895,5.1193237095,3.7002563325,91.5,-194.1,-57.3,159926
-0.042466765140324964,0.014075811828620817,1.035966910442393,-10.910034135,6.652832004,-2.6092529190000002,79.5,-198.9,-57.9,160211
0.003569670113244707,0.04753673292999136,1.0362066898453424,-18.707275314,5.9890746825,-13.27514643,91.5,-186.9,-57.3,160496
0.0086164451009355,0.06025435238918385,1.0487951085001799,-14.4729613665,1.8386840745,-9.323120079,91.5,-194.1,-58.5,160781
-0.01772525849335303,-0.0629707371280405,1.0372856971586142,-6.2789916735,0.579833982,3.158569323,93.89999999999999,-186.9,-57.3,161067
-0.015755785327424915,0.00592665761205087,1.0153458817887544,8.5525512345,-3.50952147,13.565063421,98.7,-194.1,-59.699999999999996,161352
-0.042097488921713444,0.08000987776268675,1.0106701834312433,9.1629027945,-4.623413067,15.304565367,96.3,-191.7,-57.3,161636
-0.07348596750369277,0.12137300901345845,0.9991607720896775,0.6942748995,-0.3890991195,10.574340777,98.7,-191.7,-57.9,161921
-0.09268833087149188,-0.06222990492653414,1.004316029253087,-6.4773559305,8.9645385375,3.646850571,101.1,-196.5,-60.3,162209
-0.02671097981290005,-0.09445610569206075,0.9693082364224913,-3.189086901,14.663696229,-6.2026977285000005,110.7,-198.9,-58.5,162499
0.041851304775972424,-0.0014816644030127175,0.9822563241817528,-5.935668921,14.3508910545,-8.819580042,105.89999999999999,-196.5,-57.9,162784
0.06954702117183653,0.11569329546857637,0.9781800743316149,-16.815185478,8.636474574,-8.2778930325,113.1,-191.7,-59.099999999999994,163070
0.016125061546036434,-0.018644277071243363,0.9958038604483875,-14.3356322655,4.1885375805,0.167846679,108.3,-191.7,-59.099999999999994,163354
-0.015755785327424915,-0.010742066921842203,0.9880110298525356,1.6555786065,0.488281248,4.5623779110000005,113.1,-189.29999999999998,-59.099999999999994,163640
-0.013047759724273756,0.08210890233362143,1.0269751828317948,8.789062464,-1.052856441,6.195068334,110.7,-191.7,-59.699999999999996,163925
-0.06105366814377154,0.01456969996295839,1.0405227190984294,-0.717163083,0.7247924775,3.433227525,117.89999999999999,-201.29999999999998,-60.9,164210
-0.030157557853274248,0.01691566860106186,1.0085121688046996,-8.728027308,3.372192369,-0.625610349,120.3,-201.29999999999998,-59.099999999999994,164495
0.007385524372230428,0.057537967650327204,1.0017983455221195,-14.3508910545,7.614135711,-5.1193237095,120.3,-191.7,-60.3,164782
-0.0034465780403741997,-0.037288554142486725,1.0044359189545617,-18.8980101765,9.231567345,-9.170532189,127.5,-194.1,-60.9,165070
0.03705071393402265,0.05605630324731448,0.9967629780601847,-20.797729407,5.5770873795,-6.5536498755,120.3,-189.29999999999998,-60.9,165357
-0.020064007877892663,-0.00432152117545376,1.0647404387963073,-11.2686156765,8.2168578765,-6.469726536,134.7,-191.7,-62.099999999999994,165642
0.019694731659281144,-0.04654895666131621,0.999640330895576,-7.293701142,8.2321166655,-8.224487271,132.29999999999998,-196.5,-61.5,165928
0.10832102412604629,-0.026176071119891346,0.9838148903009232,-8.514404262,7.675170867,-12.5350951635,134.7,-191.7,-60.9,166215
0.13847858197932053,0.04420298802321274,1.0190624625344682,-4.348754865,6.5841674535,-14.755248963,137.1,-194.1,-62.099999999999994,166500
0.0931806991629739,-0.008025682182985553,1.0161851096990768,-4.4479369935,2.28881835,-9.5138549415,137.1,-191.7,-63.3,166784
0.04234367306745446,-0.033707865168539325,0.9881309195540103,-10.238647419,-4.0969848465,-1.2588500925,144.29999999999998,-191.7,-63.3,167069
0.034588872476612506,0.014816644030127175,0.9786596331375135,-18.8522338095,-8.193969693,-0.2670288075,144.29999999999998,-189.29999999999998,-63.3,167354
-0.022525849335302807,-0.006420545746388443,1.0321304399952045,-10.9634398965,-5.03540037,-6.9808959675,141.9,-189.29999999999998,-66.89999999999999,167645
-0.12789266371245692,0.04531423632547228,1.072653159093634,-2.89916991,1.4419555605,-9.1476440055,144.29999999999998,-182.1,-64.5,167931
-0.06277695716395865,-0.012717619459192493,0.9715861407505095,-23.7197875005,4.135131819,-10.2462768135,149.1,-177.29999999999998,-64.5,168218
0.006893156080748399,0.1742190393875787,0.9532430164248891,-7.4539184265,4.0512084795,-4.180908186,149.1,-182.1,-66.3,168503
-0.004431314623338257,0.0738362760834671,0.9384965831435079,-15.2053832385,2.4642944235,0.5264282205,151.5,-179.7,-65.7,168789
-0.023387493845396356,0.049018397333004074,0.9460496343364105,-10.2310180245,1.358032221,6.8130492885,149.1,-182.1,-67.5,169074
-0.010462826193993106,0.06679837016915668,0.9713463613475602,-9.674072226,1.1825561475,13.137817329,156.29999999999998,-184.5,-66.89999999999999,169359
0.001600196947316593,0.04049882701568095,0.998321544179355,-15.6784056975,0.366210936,13.9999389075,158.7,-174.9,-67.5,169643
-0.04849827671097981,0.01296456352636128,1.0015585661191704,-17.761230396,0.61035156,12.039184521,156.29999999999998,-179.7,-68.1,169929
-0.08468734613490891,0.05087047783676997,1.0040762498501379,-17.669677662,0.3128051745,12.496948191,151.5,-170.1,-68.1,170217
-0.0705317577548006,0.14223978268922088,1.0252967270111497,-14.7933959355,3.3950805525,0.7400512665,168.29999999999998,-174.9,-68.7,170502
-0.012678483505662235,0.12902827509569081,1.0005994485073733,-15.4647826515,2.5405883685,-5.1345824985,165.9,-170.1,-67.5,170789
-0.010216642048252093,0.15224101740955673,0.9920872797026735,-24.2233275375,0.6027221655,-9.780883749000001,165.9,-167.7,-70.5,171074
0.006893156080748399,0.10038276330411162,0.9558805898573313,-28.869628788,1.9912719645,-10.37597652,165.9,-162.9,-69.3,171359
0.004431314623338257,0.16965057414495616,0.9630739719458099,-12.4893187965,5.966186499,-4.5394897275,175.5,-158.1,-68.7,171644
0.00947808961102905,0.13902950981602666,1.0031171322383408,-11.611938429,6.3247680405,4.760742168,165.9,-158.1,-71.1,171928
0.0585918266863614,0.14668477589825904,1.005754705670783,-13.1912230905,2.4337768455,-12.3672484845,170.7,-160.5,-71.1,172213
0.020925652387986212,0.1365600691443388,0.9760220597050714,-21.957397371,2.8457641485,-30.838012569,173.1,-150.9,-71.1,172497
-0.037543082225504676,0.09494999382639832,0.9816568756743795,-26.412963759,6.4773559305,-35.4080198745,187.5,-146.1,-71.1,172786
-0.030649926144756277,0.14668477589825904,1.027574631339168,-20.3018187645,8.316040005,-27.786254769,185.1,-131.7,-69.3,173071
-0.06523879862136879,0.08420792690455611,1.0640211005874596,-13.3590697695,7.5912475275,-26.6036986215,187.5,-134.1,-69.89999999999999,173357
-0.0673313638601674,0.11766884800592665,1.064860328497782,-2.4490356345,2.8762817265,-27.206420787,189.9,-129.29999999999998,-69.89999999999999,173642
-0.08924175283111768,0.10655636498333128,1.031890660592255,2.197265616,-0.778198239,-23.452758693,182.7,-124.5,-70.5,173932
-0.09761201378631217,0.10667983701691566,1.0044359189545617,8.590698207,-2.166748038,-12.161254833,187.5,-124.5,-71.7,174217
-0.03975873953717381,0.10062970737128041,0.9955640810454381,12.496948191,-4.6463012505,-3.20434569,187.5,-122.1,-69.89999999999999,174502
-0.027572624322993598,0.09457957772564514,0.9708668025416617,11.0549926305,-8.6441039685,3.540039048,194.7,-122.1,-70.5,174786
-0.09416543574593796,0.12631189035683418,0.9631938616472845,12.3672484845,-8.3389281885,8.8729858035,192.29999999999998,-117.3,-68.1,175071
-0.14734121122599705,0.1511297691072972,0.9797386404507853,12.6724242645,-1.6860961845,8.834838831,185.1,-114.89999999999999,-69.3,175359
-0.07373215164943378,0.17076182244721572,0.9859729049274667,3.1509399285,6.286621068,1.0299682575,187.5,-117.3,-68.7,175645
-0.018586903003446578,0.15347573774540066,0.9769811773168685,0.625610349,4.379272443,-1.06811523,194.7,-112.5,-67.5,175929
0.00775480059084195,0.11038399802444747,0.9838148903009232,1.9454955975,2.0370483315,2.731323231,187.5,-110.1,-66.3,176214
0.009354997538158542,0.0719841955797012,0.9950845222395396,4.2343139475000005,0.0076293945,7.3471069035,185.1,-110.1,-67.5,176503
-0.01772525849335303,0.09396221755772317,1.0104304040282939,5.9432983155,-0.7553100555,9.796142538,192.29999999999998,-105.3,-66.3,176789
-0.05822255046774988,0.1276700827262625,1.0303320944730847,7.431030243,0.3890991195,8.140563931500001,182.7,-105.3,-66.3,177074
-0.08407188577055638,0.11359427089764168,1.0185829037285696,7.659912078,0.9536743125,-0.442504881,182.7,-110.1,-67.5,177358
-0.08321024126046282,0.09754290653167058,0.989569595971706,5.615234352,3.616332993,-13.519287054,192.29999999999998,-98.1,-65.7,177643
0.0011078286558345643,0.10100012347203359,0.9128401870279343,-7.4539184265,11.032104447,-33.2870482035,187.5,-100.5,-65.7,177932
0.08382570162481537,0.12705272255834055,0.8885025776285818,-10.8871459515,9.094238244,-30.944824092,192.29999999999998,-98.1,-65.1,178217
0.11976858690300345,0.12569453018891222,0.8932981656875675,-15.213012633,5.050659159,-19.882202067,194.7,-100.5,-64.5,178503
0.07533234859675036,0.12149648104704285,0.9419733844862727,-13.839721623,0.6484985325,-8.712768519,199.5,-90.89999999999999,-63.3,178788
0.0620384047267356,0.16285961229781454,1.0227790432801822,-8.2626342435,-2.670288075,-1.6098022395,187.5,-86.1,-62.099999999999994,179075
0.06080748399803053,0.1512532411408816,1.0592255125284737,-4.5776367,-6.3858031965,-0.3585815415,192.29999999999998,-90.89999999999999,-63.3,179361
0.013909404234367307,-0.019878997407087293,1.2993645845821844,16.1819457345,-22.399902252,-1.5258789,192.29999999999998,-83.7,-63.3,179647
0.07607090103397342,0.7170020990245709,1.1964992207169405,87.799071906,-18.539428635,-5.6076049575,192.29999999999998,-93.3,-64.5,179931
-0.15669620876415558,0.5722928756636622,1.2147224553410862,60.440063229,2.9220580935,-12.908935494,194.7,-86.1,-62.099999999999994,180216
-0.07730182176267848,-0.13730090134584516,0.9479678695600048,7.965087858,-6.225585912,-10.406494098,185.1,-90.89999999999999,-63.3,180507
-0.023018217626784836,0.03555994567230522,0.9719458098549335,22.0870970775,-8.0032348305,-1.06811523,194.7,-88.5,-62.699999999999996,180794
-0.012801575578532743,0.14520311149524634,1.0185829037285696,18.00537102,-0.564575193,2.014160148,189.9,-90.89999999999999,-64.5,181079
-0.032619399310684395,0.13964686998394862,1.029612756264237,10.406494098,4.394531232,-6.6757201875,194.7,-90.89999999999999,-62.699999999999996,181364
-0.024618414574101428,0.1097666378565255,1.0264956240258962,6.4315795635,4.821777324,-16.6244506155,192.29999999999998,-90.89999999999999,-61.5,181650
-0.034958148695224026,0.03827633041116187,1.0076729408943772,3.1967162955,4.0359496905,-17.562866139,192.29999999999998,-95.7,-61.5,181936
0.0020925652387986213,0.04988270156809483,1.0010790073132718,6.286621068,0.0076293945,-9.094238244,189.9,-90.89999999999999,-61.5,182221
-0.008493353028064993,0.025311766884800593,1.0003596691044239,7.0266723345,-0.976562496,0.15258789,185.1,-93.3,-62.699999999999996,182506
-0.029542097488921712,-0.009383874552413879,1.0164248891020262,11.7416381355,0.091552734,2.2201537995,189.9,-95.7,-62.699999999999996,182790
-0.013540128015755786,-0.003951105074700581,1.0217000359669104,8.560180629,-0.1754760735,1.5945434505,192.29999999999998,-90.89999999999999,-62.699999999999996,183079
-0.04098966026587888,0.07729349302383011,1.0101906246253447,4.88281248,-0.0381469725,1.7471313405,192.29999999999998,-93.3,-63.9,183365
-0.0310192023633678,0.15730337078651685,1.0320105502937298,2.502441396,0.8468627895,0.488281248,189.9,-95.7,-62.699999999999996,183650
0.0002461841457410143,0.10507470058031856,1.0110298525356671,-0.8621215785,1.846313469,-4.2648315255,197.1,-98.1,-62.099999999999994,183935
-0.020433284096504186,0.01852080503765897,0.9924469488070975,-0.5111694315,1.6098022395,-5.5618285905,192.29999999999998,-93.3,-60.3,184222
-0.005908419497784343,0.010124706753920238,0.9689485673180673,3.0746459835,0.6790161105,-0.747680661,187.5,-83.7,-62.099999999999994,184507
0.005662235352043328,0.07395974811705149,1.0263757343244215,9.445190391,1.2435913035,6.0958862055,189.9,-98.1,-61.5,184794
-0.02277203348104382,0.029262871959501172,1.0197818007433161,2.6321411025,1.022338863,12.2451781725,192.29999999999998,-90.89999999999999,-63.3,185078
0.009108813392417528,-0.02716384738856649,1.0046756983575111,0.6637573215,0.8468627895,13.7863158615,194.7,-95.7,-62.699999999999996,185364
-0.016617429837518464,-0.006914433880726016,1.0068337129840548,0.4653930645,0.7705688445,8.880615198,187.5,-100.5,-62.099999999999994,185652
-0.06240768094534712,0.036053833806642795,1.0064740438796307,0.518798826,0.9078979455,1.708984368,189.9,-98.1,-61.5,185938
-0.04160512063023141,0.021484133843684406,1.0041961395516126,0.45776367,0.8010864225,-2.304077139,187.5,-100.5,-62.699999999999996,186223
-0.04172821270310192,0.024694406716878628,1.0076729408943772,0.015258789,0.0534057615,-2.0828246985,192.29999999999998,-102.89999999999999,-62.699999999999996,186509
-0.03865091088133924,0.0014816644030127175,1.0065939335811054,-0.1602172845,-0.2517700185,-0.7095336885,192.29999999999998,-100.5,-62.099999999999994,186796
-0.015386509108813392,0.010001234720335844,1.005035367461935,-0.0991821285,-0.2822875965,0.0076293945,189.9,-95.7,-62.099999999999994,187083
0.00430822255046775,0.029880232127423138,1.0053950365663589,-0.0228881835,-0.167846679,-0.167846679,187.5,-93.3,-63.9,187368
-0.019448547513540127,0.015187060130880356,1.007792830595852,0.244140624,0.747680661,-0.686645505,192.29999999999998,-98.1,-62.099999999999994,187653
-0.03409650418513048,0.03272008889986418,1.00335691164129,0.518798826,1.037597652,-2.639770497,192.29999999999998,-90.89999999999999,-63.3,187950
-0.021787296898079764,0.021854549944437585,1.0109099628341924,0.7858276335,1.098632808,-2.120971671,192.29999999999998,-95.7,-61.5,188239
-0.07090103397341212,0.02827509569082603,0.9972425368660832,0.488281248,0.747680661,2.990722644,189.9,-100.5,-63.3,188524
-0.02141802067946824,0.007284849981479195,1.0032370219398155,0.274658202,0.274658202,0.885009762,192.29999999999998,-98.1,-62.699999999999996,188813
0.014771048744460856,-0.030003704161007533,1.0062342644766815,0.2670288075,0.045776367,3.646850571,194.7,-98.1,-62.699999999999996,189101
-0.017848350566223536,-0.031238424496851463,0.9919673900011989,0.8468627895,-0.3890991195,8.8882445925,192.29999999999998,-95.7,-62.099999999999994,189390
-0.027572624322993598,0.007778738115816767,0.9952044119410143,3.81469725,-0.9231567345,9.8800658775,189.9,-98.1,-63.9,189678
-0.0023387493845396356,0.07099641931102606,1.0094712864164967,5.4397582785,-1.1672973585,5.0277709755,192.29999999999998,-102.89999999999999,-63.9,189963
-0.0241260462826194,0.1043338683788122,1.0274547416376933,3.35693358,1.9149780195,2.9067993045,192.29999999999998,-95.7,-62.099999999999994,190248
0.0241260462826194,0.05667366341523645,1.0113895216400912,3.189086901,4.3716430485,0.1449584955,192.29999999999998,-98.1,-62.099999999999994,190537
-0.01637124569177745,0.029015927892332385,1.008751948207649,7.32421872,7.7590942065,-1.8844604415,192.29999999999998,-100.5,-62.699999999999996,190823
-0.05243722304283604,0.0359303617730584,1.001678455820645,6.515502903,6.988525362,-1.5335082945,192.29999999999998,-105.3,-62.099999999999994,191110
-0.06585425898572132,0.06494628966539079,0.9991607720896775,4.440307599,4.837036113,0.1296997065,194.7,-98.1,-62.099999999999994,191397
-0.08838010832102412,0.06741573033707865,0.9960436398513368,1.9454955975,2.044677726,1.083374019,194.7,-100.5,-64.5,191686
-0.05957656326932546,0.04728978886282257,0.9998801102985253,-1.663208001,-1.7776489185,1.190185542,187.5,-105.3,-62.099999999999994,191973
-0.03803545051698671,-0.009136930485245092,1.0058745953722574,-3.0517578,-3.631591782,0.76293945,197.1,-98.1,-62.099999999999994,192260
-0.022895125553914326,0.0012347203358439314,1.0124685289533628,-1.586914056,-1.83105468,1.098632808,194.7,-98.1,-63.9,192546
-0.00036927621861152144,0.06062476848993703,1.0098309555209208,-0.061035156,-0.015258789,2.334594717,192.29999999999998,-107.7,-60.9,192834
0.03680452978828164,0.08976416841585382,1.0097110658194461,0.7247924775,1.037597652,2.5711059465,187.5,-98.1,-62.699999999999996,193122
0.003938946331856229,0.04778367699716014,1.0082723894017505,2.2964477445,2.6473998915,1.6860961845,189.9,-102.89999999999999,-62.099999999999994,193410
-0.025726243229935993,0.022965798246697124,1.0041961395516126,2.6931762585,2.777099598,1.1672973585,187.5,-98.1,-60.9,193696
-0.01563269325455441,0.04889492529941968,1.0058745953722574,1.861572258,1.846313469,0.778198239,189.9,-100.5,-62.099999999999994,193982
-0.03089611029049729,0.07111989134461044,1.0082723894017505,2.075195304,1.907348625,-0.3890991195,194.7,-102.89999999999999,-62.099999999999994,194268
-0.060315115706548496,0.08025682182985554,1.0039563601486632,1.815795891,1.5258789,-0.5722045875,192.29999999999998,-102.89999999999999,-63.9,194555
-0.01809453471196455,0.0827262625015434,0.9941254046277425,-1.8692016525,-1.403808588,2.5405883685,192.29999999999998,-105.3,-64.5,194842
-0.031634662727720336,0.06556364983331275,1.0105502937297686,-3.692626938,-2.7542114145,5.477905251,197.1,-102.89999999999999,-60.3,195129
-0.03581979320531758,0.03272008889986418,1.0023977940294928,-2.502441396,-2.4490356345,9.017944299,189.9,-100.5,-62.699999999999996,195413
-0.011078286558345642,0.010371650821089023,1.0081524997002758,-2.502441396,-2.8305053595,14.9154662475,187.5,-105.3,-61.5,195699
-0.01809453471196455,0.00950734658599827,1.0061143747752068,-2.502441396,-2.9525756715,18.875121993,192.29999999999998,-102.89999999999999,-62.099999999999994,195984
-0.03988183161004431,0.004198049141869367,1.0053950365663589,-3.2653808460000002,-3.7765502775,19.943237223,192.29999999999998,-98.1,-61.5,196270
-0.023879862136878385,0.02963328806025435,1.0075530511929025,-3.8070678555,-4.165649397,17.24243157,189.9,-102.89999999999999,-62.699999999999996,196555
-0.0027080256031511572,0.07445363625138907,1.012108859848939,-2.8457641485,-3.3340453965,12.145996044,189.9,-100.5,-62.699999999999996,196840
-0.014032496307237814,0.08951722434868502,1.0086320585061743,1.266479487,1.785278313,2.3574829005,192.29999999999998,-105.3,-62.699999999999996,197126
0.0206794682422452,0.08396098283738733,1.0088718379091237,1.6708373955,2.1286010655,-0.137329101,180.29999999999998,-102.89999999999999,-62.099999999999994,197419
0.012555391432791729,0.02136066181010001,1.007792830595852,2.777099598,3.463745103,1.7166137625,192.29999999999998,-102.89999999999999,-61.5,197707
-0.01587887740029542,0.002839856772441042,1.0109099628341924,5.111694315,6.286621068,4.4937133605,189.9,-105.3,-63.9,198000
-0.04985228951255539,0.0046919372762069395,0.9998801102985253,5.5313110125,6.6452026095,6.3552856185,187.5,-107.7,-61.5,198287
-0.05502215657311669,0.004815409309791332,0.9998801102985253,2.456665029,3.0517578,8.453369106,192.29999999999998,-110.1,-62.699999999999996,198576
-0.08136386016740522,-0.03173231263118904,1.0026375734324422,-1.144409175,-1.022338863,10.894775346,194.7,-105.3,-65.1,198864
-0.10487444608567208,-0.05605630324731448,1.0001198897014747,-5.2413940215,-5.49316404,12.710571237,185.1,-102.89999999999999,-63.3,199153
0.012555391432791729,0.027534263489319668,1.023138712384606,-8.3541869775,-9.887695272,11.489868117,185.1,-110.1,-64.5,199440
-0.022156573116691284,0.0718607235461168,1.0123486392518883,-1.159667964,-2.151489249,10.650634722,189.9,-110.1,-62.699999999999996,199729
0.00430822255046775,0.057291023583158414,1.0065939335811054,0.0228881835,-0.5111694315,11.421203566500001,192.29999999999998,-112.5,-62.099999999999994,200017
0.035573609059576565,0.020990245709346832,1.0092315070135476,-1.3046264595000001,-1.602172845,10.4598998595,185.1,-110.1,-63.3,200307
-0.0013540128015755786,-0.0032102728731942215,1.005035367461935,-1.312255854,-1.2588500925,7.995605436,189.9,-105.3,-64.5,200595
-0.024002954209748892,0.013334979627114458,0.9984414338808296,-0.5111694315,-0.8621215785,4.531860333,189.9,-112.5,-62.699999999999996,200885
-0.05366814377154111,0.04420298802321274,1.0097110658194461,0.0686645505,-0.3738403305,2.0675659095,189.9,-105.3,-65.1,201172
-0.037543082225504676,0.044326460056797135,1.0086320585061743,-0.1602172845,-0.396728514,-0.595092771,189.9,-107.7,-63.9,201464
-0.0103397341211226,0.02370663044820348,1.0081524997002758,-0.289916991,-0.396728514,0.030517578,182.7,-114.89999999999999,-64.5,201751
0.002461841457410143,0.003951105074700581,1.00671382328258,-0.3128051745,-0.350952147,1.4114379825,185.1,-110.1,-64.5,202039
0.03003446578040374,-0.041980491418693665,1.0041961395516126,-0.015258789,0.045776367,4.989624003,182.7,-110.1,-63.3,202327
0.04899064500246184,-0.055191999012223734,1.0124685289533628,0.8773803675,0.091552734,18.1350707265,185.1,-110.1,-62.099999999999994,202615
0.02535696701132447,-0.049018397333004074,0.9992806617911522,2.075195304,1.022338863,36.7202757285,187.5,-112.5,-60.9,202902
0.024618414574101428,-0.023953574515372267,1.0088718379091237,2.7542114145,0.6637573215,51.696777132,187.5,-114.89999999999999,-63.9,203190
0.00947808961102905,0.013705395727867638,1.0014386764176957,3.5934448095000002,0.900268551,60.3408811005,185.1,-107.7,-64.5,203477
-0.009724273756770064,0.020743301642178046,0.9994005514926267,3.906249984,0.3738403305,65.76538059,187.5,-107.7,-65.1,203765
-0.10388970950270802,0.13902950981602666,0.9724253686608321,-7.110595674,4.486083966,59.600829834,175.5,-114.89999999999999,-63.3,204052
0.04751354012801576,0.059636992221261884,0.97650161851097,-10.3988647035,-4.4631957825,59.158324953,173.1,-117.3,-63.3,204340
-0.016001969473165928,0.021113717742931228,1.0127083083563122,-1.2741088815,0.061035156,56.7855832635,177.9,-126.89999999999999,-63.3,204627
-0.07557853274249138,-0.008025682182985553,1.001318786716221,-2.700805653,-0.0381469725,51.0177610215,175.5,-124.5,-63.3,204916
-0.03692762186115214,0.06272379306087171,0.9992806617911522,-0.4653930645,1.06811523,47.8744504875,168.29999999999998,-124.5,-63.3,205215
-0.05009847365829641,0.08149154216569947,1.022179594772809,0.015258789,0.1754760735,43.0526731635,168.29999999999998,-129.29999999999998,-63.3,205504
-0.015755785327424915,0.06173601679219657,0.9954441913439636,0.0839233395,-0.4196166975,38.787841638,163.5,-126.89999999999999,-65.1,205792
-0.08345642540620384,0.07321891591554514,1.0010790073132718,0.2975463855,0.1754760735,30.6015013395,163.5,-126.89999999999999,-63.3,206080
-0.05969965534219596,0.08322015063588098,1.0032370219398155,0.0991821285,0.076293945,21.301269444,165.9,-134.1,-62.699999999999996,206368
-0.06610044313146234,0.08643042350907519,1.0049154777604603,-0.0228881835,0.106811523,13.137817329,161.1,-126.89999999999999,-63.3,206656
-0.052191038897095025,0.04630201259414742,1.00671382328258,-0.0534057615,-0.0839233395,6.652832004,168.29999999999998,-131.7,-62.699999999999996,206943
-0.012309207287050714,0.005556241511297691,1.008392279103225,-0.045776367,0.015258789,4.486083966,170.7,-134.1,-63.3,207232
0.0189561792220581,0.0025929127052722557,1.0069536026855292,-0.122070312,0.015258789,4.989624003,161.1,-138.9,-64.5,207522
0.01760216642048252,0.012100259291270527,1.0055149262678336,0.0228881835,0.1754760735,2.4185180565,168.29999999999998,-131.7,-63.3,207811
-0.04357459379615953,0.029880232127423138,1.0055149262678336,0.2365112295,0.686645505,-0.7247924775,163.5,-134.1,-63.3,208098
-0.01932545544066962,0.03111495246326707,1.0075530511929025,0.137329101,0.350952147,0.869750973,168.29999999999998,-134.1,-62.699999999999996,208385
-0.0361890694239291,0.03444869737004568,1.008392279103225,0.259399413,0.4043579085,0.488281248,161.1,-129.29999999999998,-63.9,208672
-0.02634170359428853,0.042103963452278056,1.008751948207649,-0.030517578,-0.1907348625,0.3738403305,165.9,-134.1,-65.7,208960
-0.021664204825209258,0.034942585504383256,1.0068337129840548,-0.045776367,-0.3433227525,0.137329101,163.5,-138.9,-65.1,209247
-0.022279665189561794,0.026546487220644524,1.0076729408943772,-0.228881835,-0.3890991195,0.2975463855,163.5,-134.1,-61.5,209536
-0.014524864598719843,0.04531423632547228,1.0052751468648844,-0.15258789,-0.2365112295,1.495361322,168.29999999999998,-134.1,-62.099999999999994,209823
-0.030280649926144758,0.07828126929250524,1.01007073492387,0.2059936515,0.381469725,3.067016589,158.7,-126.89999999999999,-63.9,210115
-0.037173806006893156,0.04827756513149772,1.0091116173120729,0.366210936,0.823974606,3.845214828,163.5,-129.29999999999998,-62.099999999999994,210403
0.01932545544066962,-0.0032102728731942215,1.0053950365663589,0.30517578,0.2975463855,6.0501098385,163.5,-129.29999999999998,-63.9,210691
0.0189561792220581,0.007778738115816767,1.0052751468648844,0.030517578,-0.0228881835,9.4375609965,165.9,-134.1,-63.9,210980
-0.015755785327424915,0.02950981602666996,1.007073492387004,0.0381469725,0.1296997065,12.344360301,163.5,-134.1,-63.3,211268
-0.030649926144756277,0.03469564143721447,1.0059944850737321,0.0686645505,0.0991821285,12.8250121545,158.7,-138.9,-61.5,211554
-0.04394387001477105,0.008396098283738733,1.0061143747752068,0.0076293945,0.0,10.3530883365,163.5,-134.1,-63.9,211841
-0.05416051206302314,0.02000246944067169,1.0071933820884786,-0.1907348625,-0.1449584955,6.56127927,168.29999999999998,-134.1,-63.9,212128
-0.04123584441161989,0.05346339054204223,1.0059944850737321,-0.198364257,-0.076293945,2.929687488,165.9,-134.1,-64.5,212419
-0.014894140817331364,0.04654895666131621,1.0076729408943772,-0.045776367,-0.076293945,0.442504881,161.1,-129.29999999999998,-62.699999999999996,212706
-0.021541112752338748,0.019508581306334115,1.0064740438796307,-0.0076293945,0.106811523,0.289916991,165.9,-131.7,-63.9,212994
-0.019571639586410634,0.04358562785529078,1.0074331614914278,0.0839233395,0.213623046,0.4196166975,163.5,-138.9,-65.1,213282
-0.027326440177252585,0.03938757871342141,1.0062342644766815,0.045776367,0.0991821285,0.1144409175,163.5,-136.5,-65.7,213569
-0.015263417035942885,0.022595382145943945,1.0061143747752068,0.0076293945,-0.106811523,0.0534057615,161.1,-138.9,-61.5,213856
-0.023141309699655343,0.028645511791579207,1.0065939335811054,0.1144409175,0.1449584955,-0.1449584955,163.5,-129.29999999999998,-65.1,214144
-0.025972427375677006,0.04000493888134338,1.0065939335811054,0.045776367,0.183105468,0.0,158.7,-136.5,-62.099999999999994,214431
-0.02141802067946824,0.029386343993085567,1.0040762498501379,0.0,0.061035156,-0.076293945,163.5,-134.1,-63.9,214720
-0.02277203348104382,0.02827509569082603,1.0075530511929025,0.0228881835,0.1296997065,-0.1296997065,163.5,-131.7,-62.099999999999994,215007
-0.019448547513540127,0.027287319422150885,1.008032609998801,0.030517578,0.0,-0.0381469725,163.5,-141.29999999999998,-63.3,215296
-0.019079271294928608,0.028645511791579207,1.0069536026855292,-0.030517578,0.1144409175,0.0228881835,163.5,-138.9,-64.5,215583
-0.02117183653372723,0.03358439313495493,1.0062342644766815,0.0076293945,0.106811523,0.0,158.7,-134.1,-63.3,215872
-0.0206794682422452,0.03358439313495493,1.007792830595852,0.061035156,0.0381469725,0.0534057615,163.5,-141.29999999999998,-63.9,216158
-0.021664204825209258,0.029756760093838746,1.0069536026855292,0.076293945,0.061035156,0.0839233395,165.9,-134.1,-64.5,216446
-0.0241260462826194,0.03185578466477343,1.00671382328258,0.0076293945,0.1602172845,0.0,161.1,-136.5,-63.3,216732
-0.0224027572624323,0.031361896530435855,1.0076729408943772,-0.045776367,0.122070312,-0.0076293945,163.5,-141.29999999999998,-64.5,217019
-0.021787296898079764,0.031608840597604645,1.0081524997002758,-0.0534057615,0.0381469725,0.0381469725,163.5,-136.5,-63.3,217306
-0.019079271294928608,0.030991480429682677,1.0053950365663589,-0.0839233395,0.0228881835,0.0686645505,158.7,-134.1,-63.9,217594
-0.0224027572624323,0.03111495246326707,1.0079127202973264,0.076293945,0.0381469725,0.015258789,161.1,-134.1,-63.9,217881
-0.019448547513540127,0.031238424496851463,1.007792830595852,0.0686645505,0.137329101,-0.0076293945,163.5,-134.1,-62.699999999999996,218169
-0.021294928606597735,0.03222620076552661,1.0062342644766815,0.106811523,0.030517578,-0.0381469725,168.29999999999998,-136.5,-62.699999999999996,218456
-0.023141309699655343,0.03333744906778615,1.006354154178156,0.1144409175,0.0,-0.076293945,165.9,-134.1,-64.5,218744
-0.0241260462826194,0.034819113470798864,1.0075530511929025,0.122070312,0.0686645505,0.0228881835,163.5,-138.9,-62.699999999999996,219030
-0.021787296898079764,0.0342017533028769,1.0071933820884786,0.106811523,0.030517578,0.0534057615,158.7,-134.1,-64.5,219320
-0.020925652387986212,0.03173231263118904,1.0062342644766815,-0.076293945,0.0686645505,-0.0076293945,153.9,-138.9,-64.5,219610
-0.0206794682422452,0.029880232127423138,1.008392279103225,0.076293945,0.091552734,0.045776367,161.1,-134.1,-63.3,219926
-0.01981782373215165,0.031361896530435855,1.0058745953722574,0.061035156,0.0839233395,0.030517578,158.7,-136.5,-64.5,220216
-0.02031019202363368,0.030497592295345103,1.006354154178156,0.076293945,0.0991821285,-0.045776367,165.9,-134.1,-63.3,220503
-0.023633677991137372,0.031238424496851463,1.004316029253087,-0.0076293945,0.0991821285,-0.091552734,163.5,-134.1,-65.1,220788
-0.024372230428360415,0.034819113470798864,1.005754705670783,0.045776367,0.1602172845,-0.0534057615,168.29999999999998,-126.89999999999999,-62.699999999999996,221074
-0.022279665189561794,0.03407828126929251,1.0079127202973264,-0.0076293945,0.091552734,0.0,165.9,-136.5,-63.3,221360
-0.022156573116691284,0.02913939992591678,1.006354154178156,-0.045776367,0.0686645505,0.1296997065,163.5,-136.5,-63.9,221647
-0.02277203348104382,0.03197925669835782,1.0046756983575111,-0.0839233395,0.015258789,0.122070312,163.5,-129.29999999999998,-65.1,221934
-0.020433284096504186,0.03074453636251389,1.0061143747752068,-0.076293945,0.091552734,0.0,161.1,-131.7,-63.3,222221
-0.02031019202363368,0.030621064328929498,1.0073132717899533,-0.0076293945,0.106811523,0.106811523,161.1,-136.5,-62.699999999999996,222505
-0.020064007877892663,0.030497592295345103,1.0079127202973264,0.0686645505,0.1144409175,-0.0381469725,161.1,-134.1,-62.699999999999996,222792
-0.022156573116691284,0.028645511791579207,1.008032609998801,-0.0076293945,0.091552734,-0.0381469725,165.9,-136.5,-64.5,223078
-0.0206794682422452,0.030868008396098285,1.0055149262678336,-0.0228881835,0.1296997065,-0.0534057615,170.7,-131.7,-62.099999999999994,223364
-0.02117183653372723,0.03210272873194221,1.0062342644766815,0.0076293945,0.122070312,-0.0381469725,156.29999999999998,-131.7,-62.699999999999996,223652
-0.022525849335302807,0.03222620076552661,1.007792830595852,-0.061035156,0.1144409175,-0.015258789,170.7,-136.5,-64.5,223940
-0.021048744460856722,0.029262871959501172,1.0068337129840548,-0.045776367,0.0839233395,0.0076293945,156.29999999999998,-136.5,-63.9,224227
-0.020433284096504186,0.03173231263118904,1.0082723894017505,-0.076293945,0.106811523,0.0,161.1,-138.9,-64.5,224515
-0.022156573116691284,0.032843560933448576,1.00335691164129,-0.0228881835,0.061035156,0.015258789,165.9,-136.5,-65.1,224801
-0.0206794682422452,0.03197925669835782,1.0058745953722574,0.0686645505,0.045776367,-0.030517578,161.1,-131.7,-63.9,225089
-0.02326440177252585,0.03222620076552661,1.0085121688046996,0.0381469725,0.2212524405,0.0381469725,163.5,-131.7,-65.1,225376
-0.02449532250123092,0.03444869737004568,1.0052751468648844,0.122070312,0.2365112295,0.259399413,161.1,-136.5,-62.699999999999996,225663
-0.019940915805022157,0.030868008396098285,1.0079127202973264,-0.0228881835,0.106811523,0.2059936515,165.9,-134.1,-63.9,225950
-0.020802560315115706,0.02827509569082603,1.005035367461935,-0.0076293945,0.106811523,0.167846679,161.1,-131.7,-63.3,226238
-0.022156573116691284,0.032843560933448576,1.0046756983575111,0.030517578,0.1602172845,0.045776367,163.5,-134.1,-63.3,226525
-0.022648941408173313,0.0342017533028769,1.0069536026855292,0.122070312,0.091552734,-0.106811523,168.29999999999998,-124.5,-63.3,226814
-0.02018709995076317,0.030991480429682677,1.008032609998801,-0.0076293945,0.1296997065,-0.015258789,165.9,-138.9,-64.5,227102
-0.022156573116691284,0.032473144832695394,1.0061143747752068,-0.045776367,0.0381469725,0.0534057615,158.7,-134.1,-63.3,227389
-0.023387493845396356,0.03185578466477343,1.0052751468648844,-0.015258789,0.0228881835,0.030517578,165.9,-138.9,-63.9,227676
-0.022895125553914326,0.03321397703420175,1.008751948207649,-0.061035156,0.076293945,0.015258789,163.5,-134.1,-63.3,227964
-0.02191038897095027,0.03272008889986418,1.0085121688046996,-0.1602172845,0.0686645505,-0.045776367,156.29999999999998,-134.1,-65.1,228253
-0.021664204825209258,0.030991480429682677,1.0046756983575111,0.0839233395,0.1296997065,0.0228881835,163.5,-138.9,-63.3,228541
-0.022648941408173313,0.03296703296703297,1.008032609998801,0.167846679,0.091552734,0.0,158.7,-138.9,-61.5,228827
-0.022895125553914326,0.02963328806025435,1.008392279103225,0.015258789,0.0686645505,0.0076293945,163.5,-136.5,-64.5,229115
-0.02621861152141802,0.036300777873811585,1.0088718379091237,0.0,0.1602172845,0.0686645505,161.1,-138.9,-63.9,229402
-0.017479074347612013,0.032473144832695394,1.006354154178156,0.0381469725,0.061035156,-0.0839233395,163.5,-129.29999999999998,-63.9,229689
-0.019694731659281144,0.027287319422150885,1.0058745953722574,-0.030517578,0.091552734,-0.076293945,170.7,-141.29999999999998,-64.5,229976
-0.02375677006400788,0.03469564143721447,1.007073492387004,0.0991821285,0.061035156,0.0839233395,161.1,-134.1,-62.699999999999996,230264
-0.023879862136878385,0.031238424496851463,1.0055149262678336,0.045776367,0.061035156,0.0228881835,158.7,-138.9,-63.3,230551
-0.021664204825209258,0.02802815162365724,1.0052751468648844,0.0381469725,0.061035156,0.0381469725,161.1,-138.9,-63.9,230839
-0.022279665189561794,0.03346092110137054,1.0062342644766815,0.1296997065,0.106811523,0.0686645505,163.5,-138.9,-61.5,231125
-0.021664204825209258,0.032349672799111,1.0086320585061743,0.0228881835,0.0228881835,0.030517578,163.5,-131.7,-62.099999999999994,231413
-0.019940915805022157,0.03346092110137054,1.0064740438796307,-0.0228881835,0.1602172845,-0.0381469725,165.9,-134.1,-64.5,231702
-0.021664204825209258,0.03222620076552661,1.0052751468648844,0.045776367,0.1144409175,-0.0076293945,163.5,-138.9,-64.5,231990
-0.023141309699655343,0.03173231263118904,1.0082723894017505,0.0534057615,0.0228881835,-0.045776367,163.5,-138.9,-63.9,232276
-0.021294928606597735,0.03272008889986418,1.00671382328258,0.061035156,0.076293945,-0.0381469725,163.5,-138.9,-65.7,232564
-0.02117183653372723,0.032473144832695394,1.0065939335811054,0.0,0.0,0.0,168.29999999999998,-134.1,-61.5,232851
-0.021294928606597735,0.03074453636251389,1.0092315070135476,0.045776367,0.0686645505,0.0534057615,158.7,-131.7,-63.9,233138
-0.02141802067946824,0.029262871959501172,1.0097110658194461,0.0076293945,0.0839233395,-0.061035156,163.5,-131.7,-64.5,233426
-0.02191038897095027,0.03037412026176071,1.0049154777604603,-0.0839233395,0.076293945,0.0076293945,161.1,-134.1,-63.3,233713
-0.021541112752338748,0.03025064822817632,1.0075530511929025,-0.1449584955,0.0839233395,0.0228881835,163.5,-136.5,-62.699999999999996,234000
-0.02117183653372723,0.03333744906778615,1.0086320585061743,-0.091552734,0.0991821285,0.0381469725,168.29999999999998,-136.5,-62.699999999999996,234288
-0.020064007877892663,0.03333744906778615,1.0079127202973264,0.0228881835,0.0381469725,0.0,161.1,-138.9,-64.5,234576
-0.021294928606597735,0.032843560933448576,1.0082723894017505,0.030517578,0.0839233395,-0.045776367,163.5,-138.9,-62.099999999999994,234865
-0.023387493845396356,0.03346092110137054,1.008392279103225,0.030517578,0.0381469725,-0.0534057615,163.5,-138.9,-63.3,235152
-0.020802560315115706,0.02963328806025435,1.0076729408943772,0.0534057615,0.076293945,-0.015258789,163.5,-134.1,-63.9,235439
-0.0206794682422452,0.029015927892332385,1.0040762498501379,-0.076293945,0.106811523,0.076293945,163.5,-131.7,-64.5,235726
-0.021048744460856722,0.02950981602666996,1.0069536026855292,0.0228881835,0.045776367,0.122070312,168.29999999999998,-134.1,-63.9,236014
-0.021664204825209258,0.03296703296703297,1.007073492387004,-0.0381469725,0.137329101,-0.0534057615,163.5,-141.29999999999998,-63.3,236301
-0.02277203348104382,0.03148536856402025,1.0076729408943772,0.030517578,0.0991821285,-0.0381469725,156.29999999999998,-131.7,-63.3,236591
-0.023387493845396356,0.03037412026176071,1.0071933820884786,0.0,0.15258789,0.030517578,163.5,-143.7,-62.099999999999994,236878
-0.020802560315115706,0.03025064822817632,1.0038364704471885,0.015258789,0.061035156,-0.0381469725,165.9,-134.1,-62.099999999999994,237168
-0.023387493845396356,0.03173231263118904,1.005754705670783,0.0686645505,0.106811523,-0.0686645505,168.29999999999998,-134.1,-63.9,237455
-0.022033481043820777,0.031608840597604645,1.008392279103225,0.045776367,0.0991821285,-0.0228881835,168.29999999999998,-134.1,-64.5,237743
-0.020433284096504186,0.029880232127423138,1.007073492387004,0.0381469725,0.091552734,0.045776367,163.5,-138.9,-63.9,238030
-0.019571639586410634,0.03210272873194221,1.007792830595852,0.061035156,-0.0076293945,-0.061035156,165.9,-141.29999999999998,-65.7,238318
-0.023633677991137372,0.03173231263118904,1.0071933820884786,-0.0228881835,0.0228881835,0.061035156,161.1,-131.7,-65.7,238606
-0.023018217626784836,0.031238424496851463,1.0076729408943772,0.106811523,0.0228881835,0.091552734,163.5,-136.5,-64.5,238894
-0.0189561792220581,0.029262871959501172,1.0076729408943772,0.0839233395,0.061035156,0.411987303,163.5,-129.29999999999998,-64.5,239181
-0.022279665189561794,0.02839856772441042,1.0068337129840548,-0.015258789,0.030517578,1.0452270465,163.5,-134.1,-63.9,239469
-0.027572624322993598,0.0359303617730584,1.0074331614914278,0.030517578,0.0381469725,0.9231567345,168.29999999999998,-134.1,-63.9,239756
-0.024002954209748892,0.03272008889986418,1.0056348159693083,0.0686645505,-0.0534057615,0.045776367,161.1,-134.1,-63.9,240044
-0.01772525849335303,0.028892455858747994,1.0064740438796307,-0.0076293945,0.0,-0.2059936515,163.5,-138.9,-63.9,240331
-0.020802560315115706,0.032349672799111,1.0075530511929025,0.061035156,0.122070312,0.0686645505,161.1,-134.1,-63.9,240619
-0.0206794682422452,0.02963328806025435,1.0062342644766815,0.0228881835,0.0534057615,-0.0076293945,158.7,-134.1,-63.3,240905
-0.020556376169374693,0.031238424496851463,1.0058745953722574,0.0381469725,0.045776367,0.061035156,161.1,-129.29999999999998,-62.699999999999996,241194
-0.021541112752338748,0.03222620076552661,1.008032609998801,0.213623046,0.061035156,0.015258789,161.1,-134.1,-64.5,241483
-0.0224027572624323,0.032473144832695394,1.0086320585061743,-0.0228881835,0.045776367,-0.061035156,165.9,-136.5,-62.699999999999996,241771
-0.02117183653372723,0.03358439313495493,1.007073492387004,0.045776367,0.106811523,-0.045776367,165.9,-138.9,-63.9,242058
-0.01932545544066962,0.03074453636251389,1.0093513967150223,0.045776367,0.167846679,-0.0076293945,161.1,-143.7,-62.699999999999996,242345
-0.018709995076317085,0.030991480429682677,1.0079127202973264,0.106811523,0.1602172845,0.061035156,161.1,-134.1,-64.5,242632
-0.019940915805022157,0.031238424496851463,1.0075530511929025,0.0991821285,0.0534057615,-0.0228881835,163.5,-126.89999999999999,-64.5,242919
-0.023510585918266862,0.03148536856402025,1.0071933820884786,-0.0076293945,0.030517578,0.0381469725,163.5,-131.7,-64.5,243206
-0.021541112752338748,0.031361896530435855,1.0064740438796307,0.0228881835,0.0534057615,0.030517578,161.1,-138.9,-64.5,243493
-0.021541112752338748,0.03148536856402025,1.007792830595852,0.045776367,0.045776367,-0.0076293945,156.29999999999998,-131.7,-64.5,243781
-0.022033481043820777,0.031238424496851463,1.0056348159693083,-0.0076293945,0.0381469725,0.0076293945,161.1,-138.9,-63.9,244068
-0.021048744460856722,0.03173231263118904,1.0056348159693083,-0.0228881835,0.0839233395,0.106811523,163.5,-138.9,-62.699999999999996,244355
-0.022525849335302807,0.03185578466477343,1.007792830595852,-0.0076293945,0.106811523,0.0228881835,161.1,-134.1,-63.3,244643
-0.02117183653372723,0.03197925669835782,1.0073132717899533,0.030517578,0.045776367,0.015258789,163.5,-141.29999999999998,-63.9,244929
-0.021664204825209258,0.030621064328929498,1.0073132717899533,-0.0228881835,0.122070312,0.0,163.5,-138.9,-63.3,245217
-0.021541112752338748,0.032596616866279786,1.007073492387004,-0.0228881835,0.137329101,0.0381469725,163.5,-134.1,-65.1,245504
-0.024002954209748892,0.031361896530435855,1.0056348159693083,0.0534057615,0.0839233395,0.045776367,163.5,-134.1,-63.3,245792
-0.022648941408173313,0.03210272873194221,1.0059944850737321,0.0076293945,0.091552734,0.030517578,158.7,-134.1,-62.699999999999996,246079
-0.018586903003446578,0.032473144832695394,1.008392279103225,-0.0228881835,0.106811523,-0.0534057615,168.29999999999998,-134.1,-63.9,246372
-0.02031019202363368,0.030621064328929498,1.0082723894017505,-0.0076293945,0.061035156,0.0076293945,158.7,-134.1,-65.7,246659
-0.021787296898079764,0.03346092110137054,1.0058745953722574,-0.030517578,0.1296997065,0.0534057615,163.5,-136.5,-63.9,246947
-0.023018217626784836,0.031608840597604645,1.00671382328258,0.0,0.1602172845,0.0534057615,168.29999999999998,-138.9,-63.3,247234
-0.020556376169374693,0.029880232127423138,1.0062342644766815,0.015258789,0.076293945,-0.015258789,163.5,-141.29999999999998,-64.5,247521
-0.0224027572624323,0.030991480429682677,1.0059944850737321,0.0228881835,0.1296997065,-0.0076293945,161.1,-129.29999999999998,-65.1,247808
-0.021664204825209258,0.03309050500061736,1.0038364704471885,-0.0076293945,0.0228881835,0.0381469725,161.1,-131.7,-64.5,248096
-0.021541112752338748,0.03210272873194221,1.007073492387004,-0.0076293945,0.0686645505,-0.0076293945,161.1,-131.7,-62.699999999999996,248383
-0.022156573116691284,0.03148536856402025,1.0052751468648844,-0.122070312,0.0839233395,-0.0534057615,165.9,-138.9,-64.5,248671
-0.019940915805022157,0.03272008889986418,1.0064740438796307,-0.030517578,0.183105468,-0.030517578,158.7,-136.5,-62.699999999999996,248959
-0.019940915805022157,0.03197925669835782,1.005754705670783,0.0076293945,0.106811523,0.0,165.9,-138.9,-63.3,249246
-0.02191038897095027,0.03025064822817632,1.0064740438796307,0.0228881835,0.137329101,-0.0534057615,158.7,-136.5,-61.5,249533
-0.023510585918266862,0.032473144832695394,1.0106701834312433,0.0,0.167846679,-0.0228881835,163.5,-134.1,-63.9,249822
-0.023510585918266862,0.030127176194591924,1.0094712864164967,0.091552734,0.137329101,0.030517578,168.29999999999998,-131.7,-63.9,250111
-0.022895125553914326,0.03358439313495493,1.0055149262678336,0.0686645505,0.15258789,0.015258789,161.1,-134.1,-62.699999999999996,250400
-0.02191038897095027,0.0342017533028769,1.0088718379091237,0.030517578,0.0991821285,0.045776367,165.9,-136.5,-62.699999999999996,250687
-0.022525849335302807,0.03148536856402025,1.0075530511929025,0.0076293945,0.0839233395,0.0,168.29999999999998,-138.9,-63.3,250975
-0.020433284096504186,0.02839856772441042,1.00335691164129,-0.0534057615,0.045776367,-0.122070312,161.1,-136.5,-63.3,251263
-0.022895125553914326,0.03210272873194221,1.0092315070135476,0.0228881835,0.122070312,-0.030517578,165.9,-136.5,-62.699999999999996,251552
-0.022279665189561794,0.028522039757994815,1.0081524997002758,0.0991821285,0.1296997065,0.0,163.5,-131.7,-64.5,251839
-0.023018217626784836,0.02950981602666996,1.0065939335811054,0.0381469725,0.0534057615,-0.045776367,161.1,-134.1,-64.5,252127
-0.02191038897095027,0.035189529571552046,1.0064740438796307,0.0534057615,0.0686645505,-0.0686645505,158.7,-131.7,-63.9,252413
-0.021541112752338748,0.027657735522904063,1.0086320585061743,0.0381469725,0.1296997065,0.0534057615,161.1,-131.7,-63.3,252701
-0.02326440177252585,0.03333744906778615,1.004316029253087,0.0228881835,0.091552734,0.091552734,165.9,-136.5,-63.9,252988
-0.02141802067946824,0.03222620076552661,1.0039563601486632,-0.015258789,0.0,0.045776367,163.5,-136.5,-65.1,253275
-0.019202363367799114,0.029756760093838746,1.0094712864164967,-0.167846679,0.0,-0.0076293945,158.7,-131.7,-64.5,253562
-0.021787296898079764,0.032349672799111,1.0081524997002758,0.0381469725,0.0686645505,0.0,158.7,-138.9,-63.9,253849
-0.021787296898079764,0.03148536856402025,1.006354154178156,0.0228881835,0.122070312,-0.015258789,161.1,-136.5,-64.5,254138
-0.021048744460856722,0.03074453636251389,1.0056348159693083,-0.0381469725,0.0686645505,0.015258789,153.9,-131.7,-62.699999999999996,254425
-0.02326440177252585,0.02950981602666996,1.0074331614914278,0.0381469725,0.076293945,0.045776367,163.5,-134.1,-63.3,254715
-0.022033481043820777,0.03185578466477343,1.005035367461935,0.030517578,0.076293945,-0.061035156,163.5,-131.7,-63.3,255003
-0.02031019202363368,0.03074453636251389,1.0059944850737321,-0.030517578,0.0991821285,-0.030517578,163.5,-134.1,-62.099999999999994,255292
-0.02277203348104382,0.03222620076552661,1.01007073492387,-0.0381469725,0.1296997065,-0.0076293945,156.29999999999998,-136.5,-63.3,255580
-0.02117183653372723,0.03272008889986418,1.0075530511929025,-0.0534057615,0.0839233395,0.0076293945,163.5,-134.1,-63.9,255867
-0.0224027572624323,0.03173231263118904,1.0023977940294928,-0.0839233395,0.0991821285,-0.0534057615,161.1,-138.9,-63.3,256157
-0.021541112752338748,0.030497592295345103,1.0062342644766815,-0.0228881835,0.137329101,-0.0076293945,156.29999999999998,-141.29999999999998,-63.9,256444
-0.024249138355489905,0.03148536856402025,1.0052751468648844,0.061035156,0.137329101,0.045776367,165.9,-134.1,-64.5,256734
-0.022525849335302807,0.03407828126929251,1.0045558086560364,0.061035156,0.076293945,-0.0076293945,158.7,-129.29999999999998,-63.3,257022
-0.022525849335302807,0.029880232127423138,1.007073492387004,0.076293945,0.106811523,0.076293945,173.1,-129.29999999999998,-63.9,257310
-0.024249138355489905,0.03358439313495493,1.0076729408943772,0.061035156,0.1449584955,0.0,163.5,-141.29999999999998,-63.3,257597
-0.020925652387986212,0.03173231263118904,1.0091116173120729,0.0,0.1144409175,-0.0228881835,168.29999999999998,-138.9,-61.5,257885
-0.019940915805022157,0.028768983825163602,1.0089917276105982,0.0686645505,0.0991821285,0.0076293945,161.1,-138.9,-63.3,258172
-0.021541112752338748,0.03321397703420175,1.0056348159693083,0.045776367,0.076293945,0.0076293945,161.1,-141.29999999999998,-64.5,258461
-0.022895125553914326,0.03432522533646129,1.0061143747752068,-0.0076293945,0.122070312,-0.0686645505,158.7,-134.1,-63.3,258749
-0.019448547513540127,0.028892455858747994,1.0059944850737321,-0.0076293945,0.0228881835,-0.0534057615,161.1,-134.1,-65.1,259036
-0.02117183653372723,0.03197925669835782,1.0068337129840548,-0.0228881835,0.1144409175,0.030517578,158.7,-134.1,-62.699999999999996,259324
-0.0224027572624323,0.0342017533028769,1.0059944850737321,0.0,0.0534057615,0.0,161.1,-131.7,-64.5,259613
-0.019202363367799114,0.03037412026176071,1.0052751468648844,-0.030517578,0.015258789,-0.0534057615,165.9,-136.5,-64.5,259899
-0.01932545544066962,0.030621064328929498,1.008032609998801,0.1754760735,0.0228881835,-0.0839233395,163.5,-136.5,-62.699999999999996,260187
-0.021787296898079764,0.03321397703420175,1.0065939335811054,0.1602172845,0.106811523,0.0,163.5,-134.1,-61.5,260474
-0.022648941408173313,0.03222620076552661,1.006354154178156,0.030517578,0.137329101,-0.0228881835,163.5,-141.29999999999998,-63.3,260763
-0.022279665189561794,0.03111495246326707,1.0086320585061743,0.091552734,0.106811523,-0.030517578,168.29999999999998,-136.5,-64.5,261051
-0.022648941408173313,0.029756760093838746,1.0064740438796307,-0.0076293945,0.0534057615,-0.0534057615,165.9,-134.1,-66.3,261339
-0.023633677991137372,0.033707865168539325,1.0055149262678336,-0.0228881835,0.0991821285,-0.0228881835,163.5,-134.1,-63.3,261626
-0.022156573116691284,0.030497592295345103,1.0076729408943772,0.061035156,0.091552734,0.0228881835,165.9,-134.1,-63.9,261915
-0.02117183653372723,0.030868008396098285,1.008032609998801,0.045776367,0.0228881835,0.0076293945,158.7,-131.7,-64.5,262202
-0.025110782865583457,0.03272008889986418,1.0068337129840548,0.106811523,0.0381469725,-0.091552734,156.29999999999998,-136.5,-66.3,262490
-0.022525849335302807,0.028892455858747994,1.0055149262678336,-0.0076293945,0.106811523,-0.0228881835,163.5,-131.7,-62.699999999999996,262776
-0.020433284096504186,0.029262871959501172,1.0076729408943772,0.0,0.076293945,0.030517578,163.5,-131.7,-63.9,263064
-0.022033481043820777,0.032596616866279786,1.005035367461935,-0.015258789,0.0839233395,0.045776367,156.29999999999998,-131.7,-62.699999999999996,263352
-0.022648941408173313,0.031361896530435855,1.0044359189545617,0.045776367,0.045776367,-0.015258789,158.7,-136.5,-65.1,263641
-0.0224027572624323,0.03074453636251389,1.0064740438796307,0.030517578,0.106811523,0.030517578,165.9,-134.1,-63.9,263927
-0.022279665189561794,0.032843560933448576,1.0076729408943772,0.030517578,0.0991821285,-0.0076293945,165.9,-134.1,-62.699999999999996,264216
-0.022279665189561794,0.030127176194591924,1.0059944850737321,0.0076293945,0.1144409175,0.0076293945,170.7,-136.5,-65.1,264504
-0.01981782373215165,0.032473144832695394,1.0052751468648844,-0.045776367,-0.0076293945,-0.0991821285,163.5,-136.5,-63.9,264791
-0.02141802067946824,0.03148536856402025,1.0061143747752068,-0.0381469725,0.015258789,-0.0534057615,163.5,-136.5,-62.699999999999996,265078
-0.024372230428360415,0.03148536856402025,1.0068337129840548,0.137329101,0.1449584955,-0.030517578,158.7,-138.9,-63.3,265365
-0.022648941408173313,0.032473144832695394,1.0061143747752068,0.0534057615,0.1449584955,0.015258789,158.7,-134.1,-63.9,265652
-0.02117183653372723,0.031361896530435855,1.006354154178156,-0.1449584955,0.0228881835,0.0534057615,161.1,-131.7,-64.5,265939
-0.019448547513540127,0.02963328806025435,1.0022779043280183,-0.0076293945,-0.0076293945,-0.0534057615,161.1,-136.5,-64.5,266226
-0.024618414574101428,0.03296703296703297,1.0082723894017505,0.0534057615,0.15258789,0.0228881835,170.7,-134.1,-64.5,266514
