ax,ay,az,gx,gy,gz,mx,my,mz,t_stamp
-0.01624815361890694,0.045808124459809856,1.0103105143268194,0.4653930645,-0.1144409175,0.137329101,-90.89999999999999,-206.1,-75.89999999999999,11218
-0.01464795667159035,0.048154093097913325,1.008751948207649,0.183105468,0.0991821285,-0.137329101,-93.3,-208.5,-72.89999999999999,11445
-0.019571639586410634,0.050376589702432396,1.0056348159693083,-0.137329101,0.1602172845,-0.45776367,-88.5,-210.9,-74.7,11672
-0.0224027572624323,0.044696876157550317,1.0058745953722574,-0.183105468,0.015258789,-0.0228881835,-88.5,-215.7,-75.89999999999999,11898
-0.02117183653372723,0.04568465242622546,1.0058745953722574,0.0381469725,0.061035156,-0.091552734,-93.3,-210.9,-74.1,12123
-0.022648941408173313,0.045561180392641065,1.0073132717899533,-0.0076293945,0.0534057615,-0.1449584955,-86.1,-210.9,-73.5,12348
-0.02191038897095027,0.039634522780590195,1.0058745953722574,-0.0839233395,0.076293945,0.030517578,-88.5,-215.7,-72.3,12575
-0.0189561792220581,0.0449438202247191,1.0074331614914278,0.15258789,0.122070312,-0.045776367,-86.1,-210.9,-75.3,12855
-0.01932545544066962,0.043215211754537596,1.0073132717899533,0.091552734,0.045776367,0.0534057615,-88.5,-208.5,-71.7,13141
-0.017355982274741506,0.04617854056056303,1.0049154777604603,0.015258789,0.122070312,-0.061035156,-93.3,-213.29999999999998,-73.5,13429
-0.01981782373215165,0.0485245091986665,1.0071933820884786,0.030517578,0.0839233395,-0.0839233395,-86.1,-210.9,-75.89999999999999,13715
-0.019694731659281144,0.04642548462773182,1.005754705670783,0.0,0.015258789,0.015258789,-90.89999999999999,-218.1,-74.1,14003
-0.021787296898079764,0.04741326089640696,1.0045558086560364,-0.0686645505,0.091552734,-0.0534057615,-93.3,-210.9,-74.7,14290
-0.022279665189561794,0.04617854056056303,1.0058745953722574,-0.0839233395,0.15258789,-0.0686645505,-95.7,-208.5,-75.3,14577
-0.01932545544066962,0.04235090751944685,1.0022779043280183,0.061035156,0.045776367,-0.0228881835,-90.89999999999999,-218.1,-73.5,14866
-0.018217626784835055,0.042103963452278056,1.0059944850737321,-0.076293945,0.015258789,0.076293945,-88.5,-210.9,-74.1,15155
-0.019079271294928608,0.04568465242622546,1.0074331614914278,0.030517578,0.106811523,0.0839233395,-90.89999999999999,-218.1,-73.5,15441
-0.019079271294928608,0.04778367699716014,1.0058745953722574,0.015258789,0.0686645505,-0.0686645505,-83.7,-208.5,-73.5,15729
-0.01932545544066962,0.04741326089640696,1.0058745953722574,-0.0076293945,0.030517578,-0.0839233395,-95.7,-218.1,-72.89999999999999,16017
-0.01846381093057607,0.048154093097913325,1.005035367461935,-0.076293945,0.091552734,0.0228881835,-93.3,-208.5,-74.7,16304
-0.018217626784835055,0.044696876157550317,1.0097110658194461,-0.0381469725,-0.0076293945,0.106811523,-90.89999999999999,-213.29999999999998,-74.1,16591
-0.020556376169374693,0.04506729225830349,1.005754705670783,0.045776367,0.091552734,0.076293945,-88.5,-213.29999999999998,-74.1,16879
-0.021541112752338748,0.04370909988887517,1.008392279103225,0.015258789,0.122070312,-0.167846679,-88.5,-206.1,-75.89999999999999,17165
-0.020433284096504186,0.04284479565378442,1.0071933820884786,-0.015258789,0.030517578,-0.0991821285,-98.1,-215.7,-75.3,17454
-0.019571639586410634,0.046795900728484996,1.0052751468648844,0.0076293945,0.076293945,0.045776367,-90.89999999999999,-210.9,-74.1,17741
-0.020802560315115706,0.049141869366588466,1.0064740438796307,-0.0076293945,0.0381469725,0.015258789,-88.5,-213.29999999999998,-72.3,18030
-0.016001969473165928,0.04605506852697864,1.0076729408943772,-0.0381469725,0.0228881835,-0.0686645505,-88.5,-210.9,-73.5,18317
-0.019694731659281144,0.04716631682923818,1.0056348159693083,-0.030517578,0.0686645505,-0.0839233395,-90.89999999999999,-215.7,-72.89999999999999,18605
-0.021294928606597735,0.041116187183602916,1.0049154777604603,-0.1144409175,0.1296997065,-0.0686645505,-88.5,-215.7,-74.1,18892
-0.02141802067946824,0.04161007531794049,1.0062342644766815,-0.0686645505,0.091552734,-0.076293945,-90.89999999999999,-210.9,-72.89999999999999,19182
-0.019079271294928608,0.05111742190393876,1.0051552571634097,-0.0076293945,0.106811523,-0.030517578,-93.3,-220.5,-74.1,19470
-0.016617429837518464,0.051364365971107544,1.004316029253087,-0.1144409175,0.0686645505,0.0076293945,-93.3,-210.9,-73.5,19762
-0.016617429837518464,0.04593159649339425,1.0010790073132718,-0.122070312,0.061035156,0.0076293945,-90.89999999999999,-213.29999999999998,-72.89999999999999,20049
-0.022033481043820777,0.040745771082849734,1.0069536026855292,0.0228881835,0.0534057615,-0.061035156,-88.5,-210.9,-72.89999999999999,20339
-0.025726243229935993,0.04062229904926534,1.0065939335811054,0.0076293945,0.045776367,-0.091552734,-93.3,-210.9,-74.1,20626
-0.027203348104382078,0.04173354735152488,1.005754705670783,0.0839233395,0.0534057615,-0.0686645505,-90.89999999999999,-210.9,-74.1,20914
-0.02018709995076317,0.049388813433757256,1.005035367461935,-0.015258789,0.0839233395,-0.061035156,-93.3,-210.9,-74.7,21201
-0.010955194485475135,0.051734782071860726,1.0055149262678336,-0.106811523,0.0381469725,0.0534057615,-95.7,-206.1,-74.1,21488
-0.014894140817331364,0.04827756513149772,1.0059944850737321,0.0839233395,0.1296997065,-0.030517578,-88.5,-213.29999999999998,-75.3,21776
-0.023879862136878385,0.04173354735152488,1.0051552571634097,0.0381469725,0.076293945,-0.106811523,-83.7,-213.29999999999998,-74.7,22064
-0.03151157065484983,0.03704161007531794,1.0069536026855292,0.061035156,0.1449584955,-0.167846679,-83.7,-213.29999999999998,-73.5,22351
-0.02671097981290005,0.04259785158661563,1.0051552571634097,0.076293945,0.106811523,-0.0534057615,-88.5,-215.7,-74.7,22639
-0.0189561792220581,0.04889492529941968,1.0056348159693083,-0.015258789,0.0076293945,0.030517578,-93.3,-218.1,-73.5,22926
-0.014401772525849335,0.051734782071860726,1.0068337129840548,-0.0076293945,-0.0076293945,0.015258789,-88.5,-213.29999999999998,-74.7,23214
-0.015140324963072379,0.050500061736016795,1.0076729408943772,-0.045776367,0.0,0.0076293945,-86.1,-213.29999999999998,-74.7,23502
-0.01637124569177745,0.046672428694900604,1.007073492387004,0.0228881835,0.045776367,-0.061035156,-93.3,-208.5,-73.5,23790
-0.022033481043820777,0.040745771082849734,1.0058745953722574,0.045776367,0.0686645505,-0.0076293945,-93.3,-215.7,-74.7,24077
-0.02031019202363368,0.04741326089640696,1.0059944850737321,0.0076293945,0.0,0.0228881835,-90.89999999999999,-213.29999999999998,-72.89999999999999,24364
-0.019079271294928608,0.04877145326583529,1.0059944850737321,-0.0381469725,-0.0381469725,-0.0076293945,-86.1,-213.29999999999998,-74.1,24653
-0.022279665189561794,0.049388813433757256,1.005035367461935,-0.0228881835,0.0686645505,-0.0686645505,-88.5,-213.29999999999998,-74.1,24941
-0.022525849335302807,0.04630201259414742,1.0074331614914278,0.015258789,0.1602172845,-0.0076293945,-90.89999999999999,-215.7,-72.3,25228
-0.01932545544066962,0.042227435485862455,1.0069536026855292,-0.0228881835,0.091552734,0.0,-83.7,-213.29999999999998,-72.3,25517
-0.016617429837518464,0.04333868378812199,1.0065939335811054,-0.0076293945,0.076293945,-0.061035156,-90.89999999999999,-213.29999999999998,-74.1,25804
-0.017109798129000493,0.04358562785529078,1.0052751468648844,0.0,0.2059936515,-0.0228881835,-90.89999999999999,-213.29999999999998,-73.5,26092
-0.02117183653372723,0.04840103716508211,1.0062342644766815,0.0686645505,-0.0076293945,-0.0686645505,-90.89999999999999,-210.9,-72.89999999999999,26379
-0.021664204825209258,0.04803062106432893,1.0049154777604603,0.0,0.0686645505,0.0381469725,-86.1,-206.1,-73.5,26667
-0.02117183653372723,0.047907149030744535,1.0064740438796307,-0.0228881835,0.076293945,0.030517578,-90.89999999999999,-218.1,-73.5,26954
-0.01981782373215165,0.04531423632547228,1.0053950365663589,-0.0534057615,0.0686645505,-0.0381469725,-90.89999999999999,-210.9,-72.3,27242
-0.016617429837518464,0.044326460056797135,1.0047955880589858,0.0,0.0991821285,-0.0686645505,-93.3,-210.9,-74.1,27529
-0.01772525849335303,0.042103963452278056,1.0076729408943772,-0.0076293945,0.0381469725,-0.0534057615,-86.1,-213.29999999999998,-72.3,27816
-0.019571639586410634,0.043215211754537596,1.0081524997002758,0.0076293945,0.0228881835,-0.0381469725,-86.1,-213.29999999999998,-73.5,28104
-0.01981782373215165,0.04728978886282257,1.0085121688046996,0.0839233395,0.0686645505,0.0228881835,-90.89999999999999,-208.5,-72.89999999999999,28395
-0.01981782373215165,0.0485245091986665,1.0062342644766815,-0.0228881835,0.0534057615,0.061035156,-88.5,-210.9,-74.1,28683
-0.020064007877892663,0.04827756513149772,1.0068337129840548,0.0991821285,0.106811523,-0.030517578,-88.5,-206.1,-74.1,28971
-0.020433284096504186,0.048154093097913325,1.0075530511929025,-0.015258789,0.0686645505,-0.0534057615,-88.5,-210.9,-74.7,29257
-0.020064007877892663,0.044326460056797135,1.0088718379091237,0.030517578,0.091552734,0.0381469725,-93.3,-213.29999999999998,-74.7,29546
-0.02191038897095027,0.04395604395604396,1.0069536026855292,0.061035156,0.1296997065,-0.061035156,-93.3,-208.5,-74.1,29833
-0.02018709995076317,0.04370909988887517,1.0099508452223953,-0.122070312,0.061035156,-0.076293945,-93.3,-220.5,-74.7,30120
-0.017479074347612013,0.044696876157550317,1.0064740438796307,-0.0381469725,0.0839233395,0.045776367,-83.7,-210.9,-74.1,30406
-0.017232890201871,0.044696876157550317,1.0085121688046996,0.106811523,0.030517578,-0.0228881835,-90.89999999999999,-210.9,-72.89999999999999,30694
-0.02117183653372723,0.04716631682923818,1.0047955880589858,-0.0228881835,0.1907348625,-0.0686645505,-86.1,-215.7,-72.3,30981
-0.021787296898079764,0.046919372762069395,1.0046756983575111,-0.045776367,0.091552734,-0.030517578,-95.7,-213.29999999999998,-72.3,31269
-0.02117183653372723,0.04482034819113471,1.00671382328258,-0.015258789,0.061035156,-0.015258789,-88.5,-213.29999999999998,-73.5,31556
-0.019694731659281144,0.04284479565378442,1.0051552571634097,0.076293945,0.1144409175,-0.015258789,-90.89999999999999,-213.29999999999998,-72.89999999999999,31846
-0.01846381093057607,0.04407951598962835,1.0047955880589858,-0.045776367,0.0839233395,-0.0076293945,-90.89999999999999,-210.9,-73.5,32133
-0.019448547513540127,0.041980491418693665,1.0069536026855292,0.030517578,0.0991821285,-0.0534057615,-90.89999999999999,-210.9,-74.7,32422
-0.01883308714918759,0.04519076429188789,1.00671382328258,0.0076293945,0.0686645505,0.0076293945,-90.89999999999999,-215.7,-74.1,32708
-0.01883308714918759,0.045808124459809856,1.0064740438796307,0.045776367,0.1144409175,0.0,-98.1,-210.9,-74.7,32998
-0.0206794682422452,0.04654895666131621,1.0068337129840548,-0.045776367,0.045776367,-0.1144409175,-88.5,-215.7,-74.7,33285
-0.023387493845396356,0.04630201259414742,1.0071933820884786,-0.0228881835,-0.015258789,-0.0228881835,-86.1,-213.29999999999998,-74.1,33573
-0.020802560315115706,0.04864798123225089,1.0075530511929025,-0.167846679,-0.0228881835,0.045776367,-93.3,-206.1,-73.5,33860
-0.01846381093057607,0.04531423632547228,1.0052751468648844,-0.030517578,0.030517578,0.015258789,-88.5,-210.9,-72.89999999999999,34147
-0.0206794682422452,0.043091739720953204,1.0073132717899533,0.0381469725,0.106811523,0.0,-93.3,-210.9,-73.5,34436
-0.01981782373215165,0.04358562785529078,1.0052751468648844,0.0534057615,0.137329101,0.0076293945,-95.7,-220.5,-74.1,34723
-0.019202363367799114,0.04370909988887517,1.0058745953722574,0.0,0.106811523,0.0381469725,-90.89999999999999,-215.7,-73.5,35009
-0.019940915805022157,0.04716631682923818,1.0053950365663589,-0.030517578,0.15258789,-0.061035156,-93.3,-206.1,-74.1,35296
-0.021541112752338748,0.050376589702432396,1.0065939335811054,0.0076293945,0.1144409175,-0.1296997065,-83.7,-206.1,-74.1,35583
-0.020802560315115706,0.046919372762069395,1.006354154178156,0.0076293945,0.0381469725,0.0381469725,-88.5,-208.5,-74.7,35872
-0.020064007877892663,0.046672428694900604,1.0046756983575111,-0.0381469725,-0.015258789,-0.0534057615,-88.5,-215.7,-75.3,36158
-0.019694731659281144,0.044696876157550317,1.008032609998801,0.0228881835,0.045776367,-0.0381469725,-88.5,-213.29999999999998,-73.5,36445
-0.01981782373215165,0.041980491418693665,1.007792830595852,-0.0991821285,0.091552734,0.0076293945,-86.1,-218.1,-74.1,36732
-0.017971442639094042,0.04482034819113471,1.007792830595852,0.0076293945,0.0839233395,0.030517578,-93.3,-210.9,-72.3,37020
-0.0189561792220581,0.04519076429188789,1.005035367461935,0.061035156,0.030517578,-0.030517578,-86.1,-213.29999999999998,-75.3,37308
-0.019571639586410634,0.04482034819113471,1.0045558086560364,0.045776367,0.106811523,-0.0534057615,-90.89999999999999,-215.7,-72.89999999999999,37596
-0.020925652387986212,0.04568465242622546,1.0053950365663589,-0.0534057615,0.0839233395,-0.030517578,-90.89999999999999,-210.9,-73.5,37886
-0.0189561792220581,0.04617854056056303,1.0045558086560364,0.0,0.0686645505,-0.061035156,-93.3,-215.7,-73.5,38174
-0.01637124569177745,0.04605506852697864,1.0079127202973264,0.0839233395,0.1296997065,-0.0228881835,-86.1,-213.29999999999998,-74.7,38461
-0.018586903003446578,0.04235090751944685,1.0059944850737321,-0.0228881835,0.091552734,0.015258789,-93.3,-213.29999999999998,-74.7,38749
-0.021787296898079764,0.042227435485862455,1.0062342644766815,0.0381469725,0.030517578,0.0076293945,-93.3,-213.29999999999998,-73.5,39036
-0.0224027572624323,0.04259785158661563,1.0044359189545617,0.030517578,0.0534057615,0.015258789,-90.89999999999999,-208.5,-74.7,39325
-0.018340718857705565,0.044326460056797135,1.0051552571634097,0.0076293945,0.106811523,-0.0534057615,-93.3,-213.29999999999998,-72.89999999999999,39612
-0.01846381093057607,0.04407951598962835,1.0055149262678336,-0.0076293945,0.106811523,0.015258789,-88.5,-210.9,-72.89999999999999,39900
-0.01932545544066962,0.04827756513149772,1.0094712864164967,0.0228881835,0.0228881835,-0.0076293945,-95.7,-206.1,-75.3,40187
-0.02031019202363368,0.049018397333004074,1.0064740438796307,-0.045776367,0.045776367,-0.030517578,-88.5,-208.5,-73.5,40475
-0.019940915805022157,0.04407951598962835,1.007792830595852,0.0,0.061035156,-0.015258789,-88.5,-218.1,-73.5,40761
-0.019202363367799114,0.04161007531794049,1.00671382328258,0.015258789,0.137329101,-0.015258789,-90.89999999999999,-210.9,-74.7,41050
-0.02031019202363368,0.04272132362020002,1.008032609998801,0.0991821285,0.0839233395,-0.030517578,-90.89999999999999,-213.29999999999998,-73.5,41336
-0.020433284096504186,0.04370909988887517,1.007792830595852,-0.030517578,0.0839233395,-0.0839233395,-90.89999999999999,-208.5,-74.1,41626
-0.017848350566223536,0.04482034819113471,1.007073492387004,-0.0228881835,0.0991821285,-0.0991821285,-93.3,-218.1,-73.5,41913
-0.01674052191038897,0.04593159649339425,1.0052751468648844,0.0,0.0686645505,-0.091552734,-95.7,-210.9,-73.5,42200
-0.019448547513540127,0.04803062106432893,1.008751948207649,0.0534057615,0.0686645505,-0.030517578,-90.89999999999999,-206.1,-72.89999999999999,42487
-0.019202363367799114,0.04617854056056303,1.0056348159693083,0.0228881835,0.0076293945,0.0,-88.5,-210.9,-73.5,42776
-0.020556376169374693,0.04383257192245956,1.0075530511929025,0.0381469725,0.0228881835,-0.0228881835,-93.3,-206.1,-73.5,43063
-0.020064007877892663,0.043462155821706386,1.0073132717899533,-0.0076293945,0.076293945,-0.030517578,-88.5,-213.29999999999998,-74.1,43350
-0.019694731659281144,0.044573404123965925,1.0073132717899533,-0.030517578,0.091552734,-0.030517578,-88.5,-213.29999999999998,-72.89999999999999,43638
-0.016986706056129987,0.044696876157550317,1.0089917276105982,-0.0228881835,0.0991821285,-0.030517578,-93.3,-210.9,-73.5,43926
-0.019571639586410634,0.045437708359056674,1.0075530511929025,0.0839233395,0.106811523,0.0,-90.89999999999999,-215.7,-74.7,44213
-0.021664204825209258,0.047907149030744535,1.0061143747752068,-0.0534057615,0.0839233395,-0.076293945,-88.5,-208.5,-73.5,44501
-0.022156573116691284,0.049265341400172864,1.0065939335811054,0.030517578,0.0991821285,-0.0381469725,-88.5,-210.9,-73.5,44787
-0.019571639586410634,0.045437708359056674,1.0053950365663589,-0.030517578,0.1296997065,-0.0381469725,-90.89999999999999,-210.9,-74.1,45075
-0.01883308714918759,0.04519076429188789,1.0055149262678336,-0.0381469725,0.0991821285,-0.0228881835,-88.5,-210.9,-72.3,45362
-0.01809453471196455,0.044573404123965925,1.0056348159693083,-0.076293945,0.1296997065,-0.0228881835,-90.89999999999999,-210.9,-72.89999999999999,45650
-0.02117183653372723,0.043091739720953204,1.006354154178156,-0.061035156,0.091552734,0.0991821285,-90.89999999999999,-213.29999999999998,-74.7,45938
-0.02031019202363368,0.04395604395604396,1.0098309555209208,-0.1296997065,0.122070312,-0.0228881835,-95.7,-210.9,-75.3,46229
-0.019448547513540127,0.044573404123965925,1.0093513967150223,0.0,0.091552734,-0.0228881835,-86.1,-215.7,-72.89999999999999,46518
-0.019571639586410634,0.04642548462773182,1.0052751468648844,-0.045776367,0.061035156,-0.0534057615,-95.7,-208.5,-74.7,46806
-0.019448547513540127,0.047907149030744535,1.0058745953722574,0.0381469725,0.1449584955,-0.015258789,-93.3,-210.9,-73.5,47093
-0.019694731659281144,0.04568465242622546,1.0062342644766815,-0.0076293945,0.0228881835,-0.122070312,-86.1,-215.7,-73.5,47381
-0.020925652387986212,0.04099271515001852,1.0065939335811054,-0.0228881835,0.0686645505,-0.076293945,-93.3,-201.29999999999998,-73.5,47668
-0.021787296898079764,0.041116187183602916,1.0064740438796307,0.0228881835,0.0686645505,0.0381469725,-90.89999999999999,-210.9,-72.89999999999999,47955
-0.017109798129000493,0.043091739720953204,1.0076729408943772,0.0991821285,0.091552734,0.0,-90.89999999999999,-208.5,-74.7,48240
-0.018340718857705565,0.04803062106432893,1.0075530511929025,0.015258789,0.0534057615,0.030517578,-90.89999999999999,-213.29999999999998,-74.1,48525
-0.019079271294928608,0.04778367699716014,1.0061143747752068,-0.030517578,0.0839233395,-0.030517578,-90.89999999999999,-213.29999999999998,-74.7,48810
-0.01883308714918759,0.04728978886282257,1.0058745953722574,0.0076293945,0.076293945,-0.0076293945,-90.89999999999999,-210.9,-74.7,49100
-0.02031019202363368,0.04642548462773182,1.0056348159693083,0.0,0.076293945,-0.030517578,-88.5,-213.29999999999998,-74.1,49385
-0.02326440177252585,0.044326460056797135,1.0056348159693083,0.0381469725,0.106811523,-0.030517578,-93.3,-208.5,-74.1,49670
-0.019940915805022157,0.043091739720953204,1.0062342644766815,0.0228881835,0.0686645505,-0.015258789,-83.7,-206.1,-72.89999999999999,49954
-0.01809453471196455,0.04482034819113471,1.0082723894017505,0.061035156,0.122070312,-0.030517578,-86.1,-210.9,-73.5,50241
-0.017971442639094042,0.045808124459809856,1.0034768013427646,0.0076293945,0.045776367,0.0228881835,-86.1,-218.1,-73.5,50524
-0.017232890201871,0.04766020496357575,1.0051552571634097,-0.076293945,0.0534057615,-0.0076293945,-86.1,-213.29999999999998,-74.1,50809
-0.018340718857705565,0.04803062106432893,1.006354154178156,0.0991821285,0.0228881835,-0.045776367,-83.7,-213.29999999999998,-72.89999999999999,51093
-0.02117183653372723,0.04654895666131621,1.0021580146265436,-0.015258789,0.0991821285,0.015258789,-88.5,-215.7,-72.3,51379
-0.0189561792220581,0.046919372762069395,1.008032609998801,-0.030517578,0.167846679,-0.030517578,-90.89999999999999,-218.1,-72.3,51667
-0.01883308714918759,0.04728978886282257,1.0068337129840548,-0.0228881835,0.137329101,-0.015258789,-93.3,-208.5,-73.5,51953
-0.02117183653372723,0.04395604395604396,1.0068337129840548,0.0,0.0381469725,-0.091552734,-90.89999999999999,-208.5,-74.1,52237
-0.02117183653372723,0.04235090751944685,1.0068337129840548,0.1144409175,0.076293945,-0.045776367,-88.5,-215.7,-73.5,52522
-0.019448547513540127,0.04395604395604396,1.00335691164129,0.0686645505,0.137329101,0.0228881835,-93.3,-208.5,-75.3,52809
-0.019571639586410634,0.04593159649339425,1.0059944850737321,0.0076293945,0.091552734,-0.0228881835,-88.5,-213.29999999999998,-74.7,53094
-0.01932545544066962,0.046795900728484996,1.007792830595852,-0.0381469725,0.0991821285,0.0076293945,-90.89999999999999,-215.7,-72.89999999999999,53379
-0.018340718857705565,0.046919372762069395,1.0047955880589858,0.015258789,0.1144409175,0.0534057615,-88.5,-218.1,-74.7,53664
-0.01932545544066962,0.044696876157550317,1.0058745953722574,0.0228881835,0.0534057615,-0.106811523,-93.3,-208.5,-74.7,53948
-0.019940915805022157,0.04766020496357575,1.0061143747752068,-0.0534057615,0.030517578,-0.0991821285,-93.3,-213.29999999999998,-75.3,54237
-0.02191038897095027,0.044696876157550317,1.005754705670783,-0.0228881835,-0.0228881835,0.0076293945,-88.5,-208.5,-74.1,54523
-0.020802560315115706,0.04407951598962835,1.0051552571634097,-0.0228881835,0.045776367,0.0381469725,-90.89999999999999,-206.1,-74.7,54810
-0.021541112752338748,0.045437708359056674,1.0059944850737321,-0.0076293945,0.0991821285,-0.0076293945,-83.7,-213.29999999999998,-74.1,55095
-0.018340718857705565,0.04803062106432893,1.0073132717899533,0.0,0.091552734,-0.015258789,-86.1,-213.29999999999998,-72.89999999999999,55384
-0.01809453471196455,0.04827756513149772,1.0064740438796307,0.0381469725,0.0839233395,0.030517578,-90.89999999999999,-215.7,-73.5,55668
-0.018709995076317085,0.04766020496357575,1.0074331614914278,-0.0839233395,0.045776367,-0.0076293945,-88.5,-210.9,-74.1,55954
-0.019079271294928608,0.04642548462773182,1.0075530511929025,0.0,-0.0839233395,-0.015258789,-90.89999999999999,-218.1,-74.1,56239
-0.019571639586410634,0.044573404123965925,1.0055149262678336,0.015258789,0.061035156,-0.030517578,-88.5,-213.29999999999998,-73.5,56524
-0.021294928606597735,0.04333868378812199,1.002997242536866,-0.0076293945,0.0686645505,-0.0534057615,-93.3,-210.9,-74.1,56813
-0.01932545544066962,0.04605506852697864,1.0076729408943772,-0.030517578,0.1602172845,-0.0228881835,-90.89999999999999,-210.9,-74.1,57099
-0.017355982274741506,0.044573404123965925,1.008032609998801,-0.0534057615,0.106811523,-0.0076293945,-90.89999999999999,-220.5,-74.1,57383
-0.018217626784835055,0.04716631682923818,1.0071933820884786,0.0534057615,0.122070312,0.0076293945,-93.3,-203.7,-72.89999999999999,57668
-0.018217626784835055,0.049388813433757256,1.0058745953722574,0.0076293945,0.1754760735,0.015258789,-90.89999999999999,-206.1,-73.5,57956
-0.02031019202363368,0.04716631682923818,1.0071933820884786,0.0534057615,0.0991821285,-0.0686645505,-86.1,-213.29999999999998,-72.89999999999999,58241
-0.018340718857705565,0.04605506852697864,1.0068337129840548,0.0534057615,0.0,-0.0076293945,-93.3,-208.5,-74.7,58525
-0.020433284096504186,0.04568465242622546,1.0073132717899533,0.0076293945,0.061035156,-0.0228881835,-86.1,-213.29999999999998,-74.1,58810
-0.019448547513540127,0.04383257192245956,1.005754705670783,0.0076293945,0.0839233395,-0.106811523,-90.89999999999999,-210.9,-74.1,59095
-0.01846381093057607,0.04235090751944685,1.0061143747752068,-0.0228881835,0.076293945,-0.091552734,-90.89999999999999,-208.5,-72.3,59385
-0.019940915805022157,0.046919372762069395,1.0049154777604603,-0.0381469725,-0.045776367,-0.0076293945,-93.3,-218.1,-74.7,59670
-0.020433284096504186,0.04605506852697864,1.0049154777604603,-0.1907348625,0.061035156,-0.0534057615,-88.5,-213.29999999999998,-72.3,59955
-0.019940915805022157,0.047042844795653786,1.0041961395516126,-0.0534057615,0.1296997065,-0.0228881835,-88.5,-210.9,-74.1,60240
-0.0206794682422452,0.0485245091986665,1.006354154178156,-0.076293945,0.0228881835,-0.0381469725,-86.1,-213.29999999999998,-74.1,60529
-0.019448547513540127,0.046919372762069395,1.0071933820884786,-0.030517578,0.0,-0.0076293945,-93.3,-213.29999999999998,-72.89999999999999,60815
-0.019079271294928608,0.044573404123965925,1.0073132717899533,-0.0076293945,0.0534057615,-0.076293945,-90.89999999999999,-206.1,-72.3,61101
-0.018709995076317085,0.04531423632547228,1.0079127202973264,0.0228881835,0.137329101,0.030517578,-100.5,-210.9,-74.1,61385
-0.01932545544066962,0.044573404123965925,1.005754705670783,-0.0228881835,0.045776367,-0.0991821285,-95.7,-208.5,-74.1,61670
-0.01932545544066962,0.044449932090381526,1.0075530511929025,0.0,0.0534057615,0.0076293945,-88.5,-210.9,-72.3,61958
-0.018586903003446578,0.046795900728484996,1.008751948207649,-0.015258789,0.091552734,0.015258789,-83.7,-213.29999999999998,-71.7,62243
-0.01846381093057607,0.04728978886282257,1.0049154777604603,-0.0228881835,0.0381469725,-0.076293945,-90.89999999999999,-213.29999999999998,-72.89999999999999,62528
-0.019694731659281144,0.04766020496357575,1.005035367461935,-0.0839233395,0.061035156,0.0076293945,-86.1,-213.29999999999998,-74.1,62814
-0.019202363367799114,0.04519076429188789,1.0049154777604603,0.0076293945,0.0686645505,-0.0534057615,-93.3,-213.29999999999998,-73.5,63101
-0.020433284096504186,0.044326460056797135,1.0046756983575111,-0.0076293945,0.1296997065,0.0,-86.1,-213.29999999999998,-74.1,63388
-0.01932545544066962,0.044573404123965925,1.0044359189545617,-0.015258789,0.0686645505,-0.0686645505,-90.89999999999999,-210.9,-74.7,63673
-0.017109798129000493,0.04519076429188789,1.008032609998801,0.091552734,0.0076293945,-0.091552734,-90.89999999999999,-213.29999999999998,-74.1,63958
-0.018709995076317085,0.04259785158661563,1.0058745953722574,0.015258789,0.076293945,0.015258789,-95.7,-213.29999999999998,-72.3,64243
-0.0206794682422452,0.047042844795653786,1.0052751468648844,-0.0534057615,0.1144409175,0.0381469725,-90.89999999999999,-213.29999999999998,-74.1,64533
-0.020802560315115706,0.04642548462773182,1.0044359189545617,-0.045776367,0.076293945,0.030517578,-90.89999999999999,-210.9,-73.5,64818
-0.020925652387986212,0.04383257192245956,1.0045558086560364,0.1144409175,0.0991821285,-0.122070312,-88.5,-210.9,-73.5,65104
-0.019571639586410634,0.04642548462773182,1.0047955880589858,0.0076293945,0.0228881835,-0.076293945,-93.3,-210.9,-73.5,65388
-0.018709995076317085,0.04568465242622546,1.0047955880589858,-0.030517578,-0.015258789,-0.0228881835,-88.5,-210.9,-75.3,65675
-0.020556376169374693,0.047042844795653786,1.005035367461935,-0.030517578,0.0686645505,-0.076293945,-88.5,-215.7,-73.5,65959
-0.0206794682422452,0.04617854056056303,1.0103105143268194,-0.091552734,0.0534057615,-0.122070312,-98.1,-210.9,-74.7,66244
-0.020802560315115706,0.04642548462773182,1.0064740438796307,-0.045776367,0.015258789,-0.0076293945,-95.7,-210.9,-72.89999999999999,66528
-0.020556376169374693,0.04593159649339425,1.0069536026855292,-0.030517578,0.0686645505,0.0,-95.7,-206.1,-72.89999999999999,66813
-0.021294928606597735,0.045561180392641065,1.0053950365663589,0.045776367,0.0534057615,-0.030517578,-86.1,-220.5,-73.5,67102
-0.020433284096504186,0.046795900728484996,1.0062342644766815,0.030517578,0.030517578,0.0839233395,-88.5,-213.29999999999998,-72.3,67388
-0.020802560315115706,0.046919372762069395,1.0079127202973264,-0.015258789,0.0534057615,0.0076293945,-90.89999999999999,-210.9,-72.89999999999999,67672
-0.02117183653372723,0.04482034819113471,1.005754705670783,0.015258789,0.0381469725,-0.091552734,-88.5,-210.9,-74.7,67958
-0.019694731659281144,0.043215211754537596,1.006354154178156,0.137329101,0.0076293945,-0.0381469725,-90.89999999999999,-213.29999999999998,-72.89999999999999,68244
-0.019202363367799114,0.04370909988887517,1.0045558086560364,-0.015258789,0.0228881835,-0.015258789,-90.89999999999999,-215.7,-74.1,68531
-0.02031019202363368,0.043462155821706386,1.0053950365663589,-0.030517578,0.030517578,0.0381469725,-90.89999999999999,-210.9,-74.1,68816
-0.020064007877892663,0.04395604395604396,1.0074331614914278,-0.137329101,0.0839233395,0.0381469725,-90.89999999999999,-210.9,-75.3,69101
-0.01932545544066962,0.04519076429188789,1.0053950365663589,0.0076293945,0.137329101,0.0686645505,-93.3,-213.29999999999998,-73.5,69386
-0.020433284096504186,0.045561180392641065,1.0082723894017505,-0.015258789,0.061035156,0.0,-95.7,-213.29999999999998,-72.89999999999999,69676
-0.01809453471196455,0.04519076429188789,1.007792830595852,-0.045776367,0.122070312,-0.0381469725,-90.89999999999999,-210.9,-73.5,69962
-0.019079271294928608,0.045561180392641065,1.007792830595852,-0.045776367,0.0839233395,0.015258789,-90.89999999999999,-210.9,-74.1,70247
-0.0189561792220581,0.044696876157550317,1.0061143747752068,0.030517578,0.0839233395,0.0686645505,-86.1,-213.29999999999998,-72.89999999999999,70531
-0.024372230428360415,0.045561180392641065,1.0062342644766815,0.0,0.076293945,0.0381469725,-93.3,-210.9,-75.3,70819
-0.034958148695224026,0.05667366341523645,1.0059944850737321,-0.15258789,0.0839233395,0.244140624,-83.7,-206.1,-74.1,71103
-0.01846381093057607,0.0702555871095197,1.0062342644766815,-0.2212524405,-0.0228881835,2.4032592675,-93.3,-208.5,-74.7,71388
-0.011939931068439193,0.04383257192245956,1.0049154777604603,-0.228881835,-0.0991821285,4.2190551585,-88.5,-203.7,-74.7,71672
-0.010216642048252093,0.026669959254228916,1.00671382328258,-0.0839233395,-0.167846679,2.4948120015,-86.1,-215.7,-72.3,71958
-0.024002954209748892,0.04062229904926534,1.0073132717899533,-0.091552734,-0.106811523,2.2964477445,-93.3,-206.1,-75.89999999999999,72247
-0.03705071393402265,0.050376589702432396,1.006354154178156,-0.122070312,-0.106811523,2.487182607,-90.89999999999999,-218.1,-72.89999999999999,72534
-0.03225012309207287,0.04975922953451043,1.007792830595852,-0.2670288075,0.045776367,3.189086901,-93.3,-206.1,-72.89999999999999,72819
-0.0224027572624323,0.05840227188541795,1.008392279103225,-0.015258789,0.411987303,5.5923461685,-95.7,-210.9,-74.1,73104
0.020802560315115706,0.04506729225830349,1.0074331614914278,0.137329101,0.4043579085,11.90185542,-95.7,-220.5,-74.7,73390
0.048867552929591336,-0.019508581306334115,1.0017983455221195,0.3890991195,-0.3280639635,24.749755758,-93.3,-206.1,-72.89999999999999,73675
0.009847365829640572,-0.043215211754537596,1.0031171322383408,0.808715817,-0.8468627895,40.191650226,-90.89999999999999,-203.7,-72.89999999999999,73960
-0.10228951255539143,0.13816520558093592,1.0256563961155736,-1.144409175,-0.4653930645,43.243408026,-95.7,-210.9,-72.3,74245
-0.03705071393402265,0.12754661069267811,0.9991607720896775,-1.9607543865000001,0.2365112295,30.4183958715,-95.7,-206.1,-75.3,74530
0.026834071885770555,0.0951969378935671,1.0086320585061743,-0.076293945,0.3280639635,19.882202067,-98.1,-210.9,-73.5,74818
0.019940915805022157,0.09988887516977404,1.0075530511929025,-0.549316404,0.259399413,14.465331972,-105.3,-208.5,-74.1,75104
-0.0048005908419497785,0.06062476848993703,1.0045558086560364,-1.0299682575,0.442504881,10.818481401,-102.89999999999999,-208.5,-74.1,75389
-0.008862629246676515,0.05346339054204223,1.0045558086560364,0.061035156,0.625610349,10.2157592355,-100.5,-203.7,-73.5,75673
-0.015755785327424915,0.08210890233362143,1.0074331614914278,0.579833982,0.76293945,8.3084106105,-107.7,-213.29999999999998,-74.1,75959
-0.007508616445100935,0.06284726509445611,1.007792830595852,0.564575193,1.281738276,7.263183564,-98.1,-210.9,-74.1,76244
0.001600196947316593,0.016051364365971106,1.006354154178156,0.7553100555,1.3656616155,10.192871052,-98.1,-203.7,-73.5,76529
-0.028311176760216644,0.010742066921842203,1.0065939335811054,0.6179809545,0.991821285,16.372680597,-105.3,-206.1,-73.5,76813
-0.01464795667159035,0.024570934683294233,1.0059944850737321,-0.244140624,-0.2212524405,16.311645441,-107.7,-208.5,-72.89999999999999,77098
-0.035573609059576565,0.049265341400172864,1.0140270950725332,-0.717163083,-0.244140624,16.9143676065,-107.7,-206.1,-73.5,77386
-0.04862136878385032,0.059883936288430674,1.0143867641769573,-2.2048950105,-0.0228881835,17.501830983,-105.3,-210.9,-74.7,77671
-0.05157557853274249,0.00864304235090752,0.981536985972905,-1.358032221,0.5722045875,13.8931273845,-102.89999999999999,-208.5,-75.3,77956
-0.009354997538158542,0.09828373873317693,1.0401630499940056,-0.1144409175,0.2822875965,8.331298794,-107.7,-208.5,-76.5,78241
0.011078286558345642,0.09494999382639832,1.0115094113415657,-5.722045875,0.1602172845,8.08715817,-114.89999999999999,-206.1,-74.1,78526
0.03212703101920236,0.038646746511915055,0.989569595971706,-5.3024291775,0.5264282205,10.574340777,-102.89999999999999,-206.1,-74.1,78813
0.0189561792220581,-0.009136930485245092,0.9779402949286656,-0.7247924775,0.808715817,12.9776000445,-102.89999999999999,-208.5,-72.89999999999999,79098
-0.0022156573116691287,0.01728608470181504,1.0160652199976021,8.102416959,0.167846679,18.371581956,-110.1,-208.5,-74.1,79384
-0.019448547513540127,0.07099641931102606,1.0378851456659872,5.1651000765,-0.030517578,20.111083902,-110.1,-206.1,-74.1,79668
-0.03741999015263417,0.1043338683788122,1.032250329696679,-2.0675659095,-0.30517578,18.630981369,-117.3,-210.9,-74.7,79953
-0.01243229935992122,0.07457710828497345,1.004316029253087,-5.8059692145,-0.3433227525,15.594482358,-107.7,-208.5,-72.89999999999999,80239
-0.0066469719350073855,0.060995184590690206,1.024217719697878,-5.752563453,0.671386716,12.05444331,-112.5,-208.5,-73.5,80526
-0.02498769079271295,0.04395604395604396,1.0136674259681093,-8.880615198,0.7247924775,7.644653289,-110.1,-203.7,-73.5,80813
-0.037173806006893156,0.015310532164464749,1.0005994485073733,-9.0713500605,1.37329101,1.9454955975,-110.1,-203.7,-74.7,81099
-0.016863613983259477,0.044696876157550317,1.0014386764176957,-5.401611306,3.311157213,-4.6920776175,-112.5,-203.7,-74.7,81384
0.009354997538158542,0.09198666502037288,1.0026375734324422,-2.1896362215,4.0359496905,-11.8026732915,-114.89999999999999,-213.29999999999998,-74.1,81669
0.028064992614475627,0.07667613285590813,0.9905287135835031,-2.4032592675,2.5100707905,-10.6582641165,-112.5,-208.5,-74.7,81953
0.047267355982274745,0.056303247314483267,0.9937657355233186,-1.754760735,0.045776367,-5.004882792,-110.1,-206.1,-72.89999999999999,82238
0.06326932545544067,0.03185578466477343,0.9995204411941014,0.76293945,-0.335693358,3.4713744975,-110.1,-206.1,-75.3,82522
0.05600689315608075,0.004444993209038153,0.9868121328377892,5.096435526,0.991821285,11.810302686,-114.89999999999999,-208.5,-74.1,82807
0.04025110782865583,-0.00012347203358439315,0.9875314710466371,9.490966758,0.320434569,17.54760735,-112.5,-201.29999999999998,-74.7,83093
0.0310192023633678,0.014940116063711569,0.9985613235823043,10.6582641165,-2.0370483315,21.3241576275,-112.5,-208.5,-74.1,83378
0.0310192023633678,0.05371033460921101,1.027934300443592,7.659912078,-5.8212280035,23.147582913,-117.3,-213.29999999999998,-73.5,83662
0.013417035942885278,0.05371033460921101,1.061863085960916,-3.677368149,-8.666992152,22.5906371145,-114.89999999999999,-210.9,-72.89999999999999,83948
-0.08690300344657804,0.08581306334115323,1.0196619110418415,1.6708373955,-0.595092771,13.7863158615,-124.5,-210.9,-75.3,84233
-0.050590841949778434,0.05605630324731448,1.0110298525356671,-0.244140624,-2.7084350475,8.529663051,-124.5,-210.9,-74.7,84518
0.005539143279172821,0.04395604395604396,1.0104304040282939,-1.159667964,-2.1743774325,7.369995087,-119.69999999999999,-208.5,-74.7,84802
0.05071393402264894,0.059636992221261884,1.028893418055389,-2.0370483315,-1.7623901295,8.9035033815,-126.89999999999999,-215.7,-73.5,85087
0.051452486459871986,0.0593900481540931,1.0310514326819327,-5.9738158935,-1.4419555605,10.772705034,-129.29999999999998,-213.29999999999998,-76.5,85374
0.03089611029049729,0.041980491418693665,1.0081524997002758,-8.85009762,-3.1204223505,12.268066356,-134.1,-210.9,-76.5,85660
0.019694731659281144,0.03333744906778615,1.00671382328258,-8.2778930325,-5.157470682,14.587402284,-124.5,-213.29999999999998,-73.5,85945
0.0120630231413097,0.030868008396098285,1.0089917276105982,-6.301879857,-6.774902316,17.623901295,-129.29999999999998,-210.9,-75.3,86231
-0.004554406696208764,0.040869243116434126,1.008032609998801,-4.196166975,-7.1182250685,19.561767498000002,-131.7,-206.1,-74.7,86517
-0.021541112752338748,0.044573404123965925,1.0073132717899533,-1.5182495055,-1.2588500925,16.510009698,-131.7,-215.7,-74.7,86803
-0.010955194485475135,0.04395604395604396,1.015106102385805,-1.693725579,1.9302368085,12.2451781725,-138.9,-206.1,-74.7,87087
0.007385524372230428,0.06247684899370293,1.0119889701474643,-1.4266967715,2.090454093,7.4386596375,-134.1,-206.1,-74.1,87372
0.02375677006400788,0.07062600321027288,1.0101906246253447,-0.3433227525,1.235961909,3.433227525,-131.7,-213.29999999999998,-74.7,87656
0.02744953225012309,0.062106432892949745,1.0103105143268194,1.159667964,0.6027221655,0.991821285,-131.7,-208.5,-74.1,87944
0.01243229935992122,0.051364365971107544,1.0021580146265436,3.6849975435,0.549316404,-0.0076293945,-136.5,-213.29999999999998,-74.7,88230
0.026464795667159036,0.04049882701568095,1.0115094113415657,6.0348510495,0.0534057615,0.2517700185,-134.1,-213.29999999999998,-75.89999999999999,88517
0.03249630723781388,0.03568341770588961,1.0116293010430404,5.935668921,0.488281248,2.532958974,-141.29999999999998,-213.29999999999998,-73.5,88804
0.02708025603151157,0.03802938634399308,1.0089917276105982,2.28881835,-1.342773432,7.9727172525,-136.5,-213.29999999999998,-74.1,89090
0.026587887740029542,0.04148660328435609,1.0086320585061743,1.5945434505,-2.319335928,10.3073119695,-143.7,-215.7,-73.5,89376
0.010832102412604629,0.04728978886282257,0.9989209926867282,1.2283325145,-3.494262681,11.4822387225,-143.7,-215.7,-74.1,89663
-0.009354997538158542,0.04383257192245956,0.9941254046277425,0.7553100555,-3.2882690295,11.7568969245,-146.1,-210.9,-71.7,89947
-0.010093549975381585,0.03272008889986418,0.9984414338808296,2.151489249,-1.510620111,10.742187456,-143.7,-215.7,-74.7,90232
-0.019079271294928608,0.03333744906778615,1.0019182352235942,5.5465698015000005,2.410888662,8.39233395,-148.5,-215.7,-75.3,90519
-0.01292466765140325,0.03358439313495493,1.0113895216400912,6.7672729215,5.203247049,5.020141581,-143.7,-220.5,-74.7,90806
0.014155588380108322,0.024694406716878628,1.0101906246253447,1.9607543865000001,3.067016589,0.91552734,-148.5,-213.29999999999998,-73.5,91092
0.024372230428360415,0.02136066181010001,0.9948447428365903,-5.5007934345,-2.2048950105,-1.663208001,-148.5,-213.29999999999998,-74.7,91380
0.05096011816838995,0.01691566860106186,0.9775806258242417,-11.6653441905,-7.3013305365,3.8833618005,-153.29999999999998,-222.9,-74.7,91665
0.03286558345642541,0.010742066921842203,0.9840546697038725,-8.5372924455,-3.2882690295,9.1323852165,-155.7,-213.29999999999998,-73.5,91950
0.01760216642048252,0.02444746264970984,0.9934060664188946,-4.9362182415,0.3585815415,11.8331908695,-153.29999999999998,-220.5,-72.89999999999999,92235
0.00812407680945347,0.039634522780590195,1.0008392279103224,-4.2495727365,2.075195304,12.725830026,-158.1,-213.29999999999998,-73.5,92520
-0.00036927621861152144,0.046672428694900604,1.0064740438796307,-3.799438461,4.5623779110000005,12.2756957505,-158.1,-215.7,-74.7,92805
0.003569670113244707,0.06173601679219657,1.0179834552211966,-2.28881835,7.080078096,11.1007689975,-148.5,-213.29999999999998,-75.89999999999999,93092
0.024249138355489905,0.07309544388196074,1.0173840067138233,-1.693725579,6.4620971415,8.9492797485,-158.1,-210.9,-74.1,93379
-0.004185130477597243,0.03407828126929251,0.9838148903009232,1.0147094685,6.8435668665,5.523681618,-162.9,-215.7,-74.1,93665
-0.00775480059084195,0.03321397703420175,1.0264956240258962,10.7803344285,7.797241179,1.83105468,-158.1,-210.9,-72.3,93949
-0.05256031511570655,0.04099271515001852,1.0172641170123486,23.391723537,7.797241179,0.0381469725,-158.1,-218.1,-71.7,94236
-0.048867552929591336,0.035189529571552046,1.0203812492506894,25.5661009695,7.6370238945,-7.7133178395,-160.5,-218.1,-74.1,94521
-0.04948301329394387,0.024200518582541054,1.0082723894017505,25.5050658135,9.9716186115,-7.6980590505,-162.9,-218.1,-72.89999999999999,94806
-0.038897095027080254,0.029880232127423138,1.0091116173120729,26.7257689335,12.3367309065,-6.9351196005,-165.29999999999998,-215.7,-73.5,95091
-0.044682422451994094,0.0359303617730584,0.9988011029852536,23.9028929685,11.505126906,-2.8762817265,-153.29999999999998,-220.5,-74.7,95376
-0.024002954209748892,0.04000493888134338,0.9980817647764058,18.081664965,7.690429656,2.487182607,-162.9,-225.29999999999998,-74.1,95663
-0.01637124569177745,0.038523274478330656,1.0021580146265436,13.3590697695,4.73022459,5.371093728,-160.5,-222.9,-72.89999999999999,95950
-0.03385032003938946,0.05914310408692431,1.0064740438796307,9.979248006,1.5182495055,5.1956176545,-165.29999999999998,-222.9,-73.5,96235
-0.06326932545544067,0.10717372515125324,1.0184630140270952,-6.347656224,-7.6522826835,1.67846679,-162.9,-220.5,-72.89999999999999,96520
-0.0008616445100935499,0.03148536856402025,0.9683491188106942,-13.2369994575,-16.3040160465,0.9078979455,-170.1,-222.9,-73.5,96808
-0.03988183161004431,0.054945054945054944,1.0049154777604603,-6.86645505,-7.675170867,0.7247924775,-172.5,-227.7,-72.3,97095
-0.08714918759231906,0.064699345598222,1.0023977940294928,-5.0430297645,0.1296997065,-2.0370483315,-167.7,-225.29999999999998,-72.89999999999999,97380
-0.0413589364844904,0.0359303617730584,1.001678455820645,-5.64575193,2.4490356345,-9.1629027945,-165.29999999999998,-220.5,-73.5,97665
-0.018340718857705565,0.026669959254228916,0.9940055149262679,-5.355834939,4.318237287,-15.7394408535,-167.7,-222.9,-73.5,97950
-0.007508616445100935,0.03790591431040869,1.0047955880589858,-7.095336885,3.7918090665,-18.020629809,-170.1,-225.29999999999998,-73.5,98240
0.014278680452978828,0.05111742190393876,1.0093513967150223,-9.1323852165,1.0604858355,-18.432617112,-167.7,-218.1,-74.1,98526
0.019571639586410634,0.03914063464625262,1.0183431243256205,-9.6206664645,-1.022338863,-15.8462523765,-170.1,-218.1,-74.1,98812
-0.05748399803052683,0.04173354735152488,1.025896175518523,-8.1253051425,-4.42504881,-0.640869138,-172.5,-213.29999999999998,-72.3,99097
-0.02191038897095027,0.046919372762069395,1.0058745953722574,-7.9727172525,-6.7672729215,4.7683715625,-170.1,-218.1,-72.89999999999999,99384
-0.01120137863121615,0.032843560933448576,1.0115094113415657,-7.003784151,-6.484985325,8.9645385375,-170.1,-218.1,-72.3,99669
-0.011570654849827671,0.02321274231386591,1.0076729408943772,-6.8435668665,-7.1182250685,10.8566283735,-167.7,-215.7,-72.89999999999999,99954
-0.022648941408173313,0.04062229904926534,0.9961635295528114,-7.47680661,-7.568359344,10.9329223185,-174.9,-210.9,-72.89999999999999,100238
-0.06253077301821763,0.060007408322015066,1.001678455820645,-8.1253051425,-6.179809545,7.354736298,-174.9,-210.9,-73.5,100524
-0.04455933037912359,0.06704531423632547,1.005754705670783,-7.568359344,-4.0054321125,1.6860961845,-177.29999999999998,-213.29999999999998,-75.3,100810
-0.02486459871984244,0.07408322015063588,1.017144227310874,-4.8751830855,0.7400512665,-2.2354125885,-179.7,-213.29999999999998,-72.3,101096
0.02449532250123092,0.023336214347450302,1.0196619110418415,0.122070312,3.417968736,-4.974365214,-177.29999999999998,-210.9,-72.89999999999999,101381
0.03421959625800099,0.025435238918384985,1.0088718379091237,-0.869750973,0.061035156,-5.0125121865,-182.1,-208.5,-74.1,101667
0.04357459379615953,0.02123718977651562,1.0051552571634097,-3.6849975435,-4.837036113,-4.714965801,-170.1,-210.9,-74.1,101954
0.05157557853274249,0.021484133843684406,0.9912480517923511,-6.317138646,-7.4539184265,-3.112792956,-179.7,-210.9,-75.3,102240
0.007508616445100935,0.027781207556488455,0.9898093753746553,-7.6065063165,-6.317138646,-1.1062622025,-179.7,-206.1,-74.1,102524
-0.05034465780403742,0.04630201259414742,1.0199016904447908,-8.5678100235,-4.455566388,-2.2048950105,-179.7,-198.9,-74.1,102809
0.024618414574101428,-0.000864304235090752,1.0175038964152978,-7.369995087,-5.1651000765,-4.257202131,-182.1,-208.5,-74.7,103094
-0.09428852781880846,0.132855908136807,1.022898932981657,3.173828112,2.2354125885,-7.7590942065,-184.5,-208.5,-75.3,103382
-0.033357951747907434,0.0847018150388937,1.015465771490229,0.6637573215,0.732421872,-16.5939330375,-179.7,-203.7,-75.3,103666
0.021294928606597735,0.016668724533893075,1.007792830595852,3.417968736,3.067016589,-16.5328978815,-179.7,-201.29999999999998,-72.89999999999999,103952
0.008247168882323979,-0.00012347203358439315,1.0035966910442393,1.0147094685,-0.0839233395,-13.4353637145,-184.5,-203.7,-72.3,104237
-0.0002461841457410143,-0.01098901098901099,1.0069536026855292,-0.6790161105,-1.6860961845,-8.972167932,-179.7,-203.7,-74.1,104525
-0.006277695716395864,0.011359427089764168,1.001678455820645,-0.8468627895,-1.0757446245,-3.646850571,-179.7,-206.1,-74.1,104811
-0.02326440177252585,0.03568341770588961,1.0073132717899533,-1.480102533,-1.510620111,0.0534057615,-177.29999999999998,-196.5,-74.1,105096
-0.011570654849827671,0.06358809729596246,1.0116293010430404,-1.6403198175,-1.968383781,2.838134754,-184.5,-191.7,-74.7,105380
-0.022156573116691284,0.07531794048647981,1.0075530511929025,-0.015258789,-0.320434569,4.6157836725,-182.1,-201.29999999999998,-74.1,105666
-0.013170851797144265,0.05420422274354859,1.0101906246253447,0.274658202,-0.015258789,5.462646462,-186.9,-196.5,-75.3,105954
0.02621861152141802,0.032596616866279786,1.019182352235943,-0.6484985325,-1.449584955,2.532958974,-182.1,-196.5,-73.5,106240
0.012555391432791729,0.03975799481417459,1.008392279103225,0.0534057615,-2.700805653,2.700805653,-186.9,-189.29999999999998,-73.5,106525
-0.010585918266863614,0.08000987776268675,1.0064740438796307,1.0452270465,-4.165649397,2.548217763,-191.7,-196.5,-71.7,106813
-0.025480059084194977,0.059636992221261884,1.0049154777604603,1.144409175,-4.470825177,0.2212524405,-184.5,-189.29999999999998,-73.5,107100
-0.05231413096996553,0.03889369057908384,1.008032609998801,1.235961909,-3.7307739105,-1.296997065,-186.9,-186.9,-73.5,107386
-0.05551452486459872,0.025311766884800593,1.0047955880589858,0.4806518535,-2.5253295795,-0.534057615,-196.5,-189.29999999999998,-71.1,107671
-0.00430822255046775,0.0539572786763798,0.9997602205970507,-0.0381469725,-1.1520385695,-5.0125121865,-189.29999999999998,-191.7,-74.1,107956
0.024372230428360415,0.04407951598962835,1.0113895216400912,0.137329101,-0.335693358,-10.9786986855,-191.7,-194.1,-71.7,108241
0.0017232890201870998,0.021113717742931228,1.024577388802302,0.198364257,0.381469725,-7.7896117845,-191.7,-184.5,-74.1,108531
0.009231905465288036,0.06309420916162489,1.0145066538784318,0.3738403305,-1.3504028265,-0.4348754865,-194.1,-189.29999999999998,-72.89999999999999,108816
0.011078286558345642,0.0719841955797012,1.0055149262678336,0.2212524405,-3.311157213,0.961303707,-186.9,-189.29999999999998,-71.7,109103
-0.022156573116691284,0.03580688973947401,1.0348879031291212,0.686645505,-5.0277709755,0.930786129,-198.9,-184.5,-73.5,109387
-0.00036927621861152144,0.01889122113841215,1.0202613595492147,1.8234252855,-6.835937472,2.777099598,-191.7,-189.29999999999998,-70.5,109674
0.0011078286558345643,0.03568341770588961,1.0093513967150223,3.799438461,-7.919311491,5.6228637465,-196.5,-186.9,-71.7,109958
-0.01883308714918759,0.06408198543030004,1.0028773528353914,4.5852660945,-8.773803675,6.8435668665,-196.5,-182.1,-71.1,110243
-0.015263417035942885,0.0755648845536486,0.9982016544778803,3.7155151215,-9.3002318955,7.507324188,-186.9,-182.1,-71.7,110527
-0.010216642048252093,0.06704531423632547,0.9962834192542861,3.189086901,-8.6288451795,7.888793913,-196.5,-182.1,-72.3,110813
-0.030403741999015264,0.06432892949746882,0.9977220956719818,2.212524405,-7.4539184265,6.5689086645,-196.5,-177.29999999999998,-72.89999999999999,111099
0.028311176760216644,0.05198172613902951,0.9869320225392639,0.7553100555,-4.4021606265,-0.3280639635,-198.9,-182.1,-71.1,111385
0.01809453471196455,0.03469564143721447,0.9958038604483875,1.7166137625,-1.2893676705,-1.998901359,-196.5,-174.9,-70.5,111671
-0.03089611029049729,0.005803185578466478,0.9958038604483875,2.792358387,0.4043579085,-2.487182607,-194.1,-186.9,-70.5,111957
0.0086164451009355,0.03691813804173355,1.0152259920872797,4.653930645,-0.427246092,-1.327514643,-194.1,-179.7,-72.3,112243
-0.0258493353028065,0.03407828126929251,1.030571873876034,3.0517578,-0.2059936515,0.4043579085,-198.9,-179.7,-70.5,112529
0.010955194485475135,0.08717125571058155,0.9834552211964992,0.885009762,-1.1825561475,1.0452270465,-194.1,-182.1,-71.7,112813
-0.0103397341211226,0.02913939992591678,1.0308116532789833,0.7247924775,-1.6555786065,1.0147094685,-201.29999999999998,-174.9,-71.1,113099
-0.024002954209748892,0.03469564143721447,1.037645366263038,-0.213623046,-0.76293945,0.793457028,-198.9,-172.5,-70.5,113384
0.00012309207287050715,0.09741943449808618,0.9980817647764058,8.575439418,1.3504028265,-0.4959106425,-203.7,-174.9,-69.3,113671
0.01563269325455441,0.0522286702061983,1.0348879031291212,5.1498412875,1.0604858355,-3.219604479,-201.29999999999998,-179.7,-71.1,113956
0.006893156080748399,0.0012347203358439314,1.053470806857691,3.5629272315,-0.4959106425,-5.981445288,-196.5,-184.5,-72.3,114242
0.01563269325455441,0.03926410667983702,0.9864524637333653,5.4702758565,0.5111694315,-6.1874389395,-201.29999999999998,-179.7,-69.89999999999999,114528
-0.04874446085672083,-0.025682182985553772,1.0511929025296727,4.9362182415,0.534057615,-3.982543929,-203.7,-172.5,-69.3,114816
0.05428360413589365,0.12804049882701568,0.9980817647764058,3.2653808460000002,-0.076293945,-1.205444331,-201.29999999999998,-174.9,-70.5,115102
-0.006523879862136878,0.02247191011235955,1.0263757343244215,2.700805653,-1.693725579,1.663208001,-198.9,-174.9,-69.3,115387
0.0023387493845396356,0.026423015187060132,0.9995204411941014,3.7460326995,-1.6555786065,3.952026351,-201.29999999999998,-174.9,-69.89999999999999,115673
0.0,0.11285343869613533,1.0086320585061743,5.8059692145,-2.0065307535,5.6838989025,-201.29999999999998,-174.9,-70.5,115959
0.0206794682422452,0.049141869366588466,1.0183431243256205,7.720947234,-4.516601544,3.906249984,-201.29999999999998,-172.5,-70.5,116246
0.0723781388478582,0.03667119397456476,1.0190624625344682,9.452819785500001,-6.912231417,0.976562496,-196.5,-182.1,-69.3,116531
0.003692762186115214,0.04766020496357575,0.9747032729888503,6.3095092515,-1.464843744,1.968383781,-201.29999999999998,-182.1,-68.1,116817
0.023633677991137372,0.05124089393752315,0.9994005514926267,6.2942504625,-1.342773432,0.015258789,-201.29999999999998,-174.9,-69.3,117103
0.03938946331856229,0.0593900481540931,1.010790073132718,7.202148408,1.5182495055,-3.7460326995,-203.7,-172.5,-68.7,117391
0.0568685376661743,0.05420422274354859,1.0338088958158493,6.1111449945,2.4337768455,-7.2860717475,-203.7,-177.29999999999998,-69.89999999999999,117677
0.06560807483998031,0.07309544388196074,1.0375254765615634,5.3024291775,1.861572258,-7.6828002615,-203.7,-179.7,-69.89999999999999,117963
0.04258985721319547,0.10198789974070872,1.0182232346241458,5.584716774,0.854492184,-8.2626342435,-198.9,-174.9,-68.7,118252
0.0072624322993599215,0.09766637856525497,0.9954441913439636,16.250610285,0.7400512665,-6.820678683,-196.5,-172.5,-67.5,118538
0.011447562776957163,0.11075441412520064,1.0099508452223953,21.118163976,0.9384155235,-10.635375933,-201.29999999999998,-174.9,-66.3,118829
0.02326440177252585,0.10655636498333128,1.0284138592494905,17.730712818,0.091552734,-18.844604415,-201.29999999999998,-179.7,-67.5,119115
0.04862136878385032,0.07420669218422027,1.012828198057787,9.353637657,-2.716064442,-24.6353148405,-196.5,-170.1,-67.5,119403
0.06302314130969966,0.04766020496357575,0.9852535667186189,3.845214828,-5.1498412875,-27.8091429525,-198.9,-184.5,-65.7,119690
0.05108321024126046,0.03469564143721447,0.9717060304519842,3.784179672,-6.6146850315,-25.1998900335,-198.9,-182.1,-66.3,119977
0.043205317577548,0.06284726509445611,0.9778204052271909,6.286621068,-7.980346647,-21.6140746185,-196.5,-177.29999999999998,-66.3,120262
0.022279665189561794,0.08235584640079022,0.984534228509771,5.9127807375,-8.6288451795,-19.4473265805,-198.9,-172.5,-65.7,120547
0.0027080256031511572,0.10667983701691566,1.001678455820645,7.217407197,-5.6381225355,-22.750854399,-198.9,-179.7,-65.1,120832
0.0,0.10161748363995556,1.0055149262678336,8.926391565,-2.197265616,-26.9393919795,-194.1,-179.7,-65.1,121134
-0.003938946331856229,0.07766390912458328,1.0101906246253447,7.5302123715,0.0839233395,-29.693603394,-189.29999999999998,-177.29999999999998,-65.1,121422
0.010955194485475135,0.038399802444746264,1.0028773528353914,3.540039048,0.717163083,-29.3655394305,-194.1,-177.29999999999998,-65.1,121710
0.02449532250123092,0.02950981602666996,1.0049154777604603,1.190185542,-0.091552734,-27.664184457,-194.1,-186.9,-67.5,121998
0.01760216642048252,0.08346709470304976,1.017144227310874,1.052856441,0.30517578,-28.6178587695,-189.29999999999998,-184.5,-63.9,122284
0.00775480059084195,0.10914927768860354,1.0224193741757583,-4.1732787915,3.768920883,-29.29687488,-189.29999999999998,-182.1,-65.1,122570
0.028680452978828163,0.09396221755772317,1.0261359549214721,-8.5220336565,7.675170867,-31.12792956,-196.5,-179.7,-65.7,122856
0.021787296898079764,0.12507717002099025,1.0140270950725332,-19.012451094,10.330200153,-42.8543089065,-191.7,-177.29999999999998,-65.1,123142
0.01809453471196455,0.09136930485245091,0.9772209567198178,-20.736694251,7.598876922,-43.8461301915,-184.5,-184.5,-63.3,123428
0.008247168882323979,0.09025805655019138,0.9772209567198178,-15.487670835,6.6146850315,-44.189452944,-179.7,-184.5,-65.1,123716
-0.0014771048744460858,0.037165082108902334,0.9702673540342884,-9.689331015,5.447387673,-39.245605308,-177.29999999999998,-189.29999999999998,-64.5,124003
0.030773018217626784,0.05803185578466477,0.9943651840306917,6.71386716,4.638671856,-37.68920883,-182.1,-179.7,-65.7,124290
0.013540128015755786,0.09433263365847636,1.023858050593454,17.1890258085,6.0806274165,-35.324096535,-177.29999999999998,-194.1,-65.7,124582
-0.033973412112259974,0.054080750709964195,1.002997242536866,12.390136668,2.6092529190000002,-27.130126842,-179.7,-186.9,-63.3,124869
-0.01070901033973412,0.050253117668848005,0.9890900371658075,11.413574172,-4.5242309385,-21.3241576275,-177.29999999999998,-179.7,-63.9,125155
-0.0706548498276711,0.04716631682923818,0.9754226111976981,3.433227525,-6.607055637,-1.1672973585,-179.7,-186.9,-63.9,125440
-0.08321024126046282,0.07297197184837634,0.9613955161251648,0.9231567345,-7.080078096,7.568359344,-174.9,-189.29999999999998,-62.699999999999996,125725
-0.08911866075824718,0.0755648845536486,0.9478479798585302,-3.784179672,-8.377075161,18.325805589,-182.1,-184.5,-64.5,126012
-0.06265386509108814,0.03765897024323991,0.9731447068696799,-7.598876922,-9.8800658775,26.5884398325,-174.9,-182.1,-62.699999999999996,126298
-0.03188084687346135,0.024077046548956663,0.9778204052271909,-9.933471639,-12.66479487,31.89086901,-186.9,-179.7,-62.099999999999994,126582
0.012186115214180207,0.03321397703420175,0.9786596331375135,-10.726928667,-16.510009698,35.9725950675,-179.7,-182.1,-64.5,126868
0.009231905465288036,0.06284726509445611,0.9870519122407385,-10.3225707585,-17.85278313,39.764404134,-186.9,-179.7,-63.9,127152
0.008985721319547021,0.0735893320162983,0.9944850737321664,-9.4223022075,-19.3862914245,42.098998851,-189.29999999999998,-177.29999999999998,-63.3,127438
0.02744953225012309,0.08038029386343994,1.008751948207649,-6.805419894,-19.6304320485,43.6630247235,-186.9,-165.29999999999998,-63.3,127723
0.006277695716395864,0.10779108531917521,1.092794628941374,-2.6016235245,-16.845703056,45.455932431,-194.1,-160.5,-64.5,128009
-0.10032003938946332,0.16298308433139894,1.0553890420812853,-13.7710570725,-6.56127927,41.030883621,-194.1,-165.29999999999998,-62.699999999999996,128293
-0.07533234859675036,0.0828497345351278,0.9940055149262679,-22.4075316465,-4.531860333,31.372070184000002,-198.9,-162.9,-62.099999999999994,128579
-0.03360413589364845,0.07766390912458328,1.0082723894017505,-15.655517514,1.22070312,26.9851683465,-196.5,-160.5,-64.5,128864
-0.05957656326932546,0.08013334979627114,1.0118690804459898,-13.0233764115,5.599975563,22.079467683,-206.1,-158.1,-62.699999999999996,129150
-0.03643525356967011,0.046795900728484996,1.0032370219398155,-14.3508910545,5.34057615,10.8566283735,-196.5,-158.1,-65.1,129434
-0.03680452978828164,-0.004444993209038153,1.0187027934300443,-14.419555605,5.462646462,0.9841918905,-198.9,-158.1,-63.9,129722
-0.025110782865583457,0.12483022595382146,1.0459177556647883,-11.8026732915,6.4620971415,-6.2484740955,-198.9,-160.5,-64.5,130007
0.05846873461349089,0.11223607852821336,0.9925668385085721,-11.13891597,4.989624003,-11.184692337,-203.7,-158.1,-63.9,130294
0.03902018709995076,0.027410791455735276,1.01007073492387,-5.096435526,3.5476684425,-7.2555541695,-196.5,-158.1,-63.3,130581
-0.006154603643525357,0.009754290653167057,1.0401630499940056,-3.250122057,0.5416870095,-4.7531127735,-201.29999999999998,-155.7,-63.9,130866
-0.002461841457410143,0.028892455858747994,1.0334492267114255,-0.9384155235,-0.8773803675,-3.3798217635,-196.5,-162.9,-63.3,131153
-0.001600196947316593,0.024694406716878628,1.001318786716221,2.3574829005,-0.213623046,0.76293945,-196.5,-158.1,-63.3,131439
0.005046774987690792,0.04037535498209655,1.0099508452223953,4.409790021,1.235961909,3.494262681,-198.9,-158.1,-64.5,131726
0.02880354505169867,0.027781207556488455,1.0085121688046996,4.8904418745000005,1.5640258725,3.997802718,-191.7,-162.9,-64.5,132013
0.04431314623338257,0.02827509569082603,1.020501138952164,5.3482055445,1.5792846615,4.2800903145,-198.9,-158.1,-63.9,132300
0.07877892663712457,0.03901716261266823,1.0023977940294928,5.233764627,0.3128051745,3.2272338735,-198.9,-155.7,-65.7,132587
0.06954702117183653,0.03667119397456476,0.9947248531351157,2.059936515,-3.3035278185,2.6016235245,-198.9,-153.29999999999998,-62.699999999999996,132873
0.043328409650418516,0.035189529571552046,0.9970027574631339,1.708984368,-1.3656616155,1.5640258725,-198.9,-155.7,-63.3,133162
0.03532742491383555,0.031361896530435855,1.0021580146265436,1.8234252855,1.22070312,1.7013549735,-194.1,-153.29999999999998,-62.699999999999996,133447
0.05231413096996553,0.035189529571552046,1.0073132717899533,1.8844604415,1.876831047,3.7002563325,-194.1,-160.5,-63.9,133736
0.0499753815854259,0.058649215952586736,1.0119889701474643,2.3574829005,1.327514643,5.386352517,-196.5,-160.5,-63.9,134022
0.03520433284096504,0.07963946166193357,1.0115094113415657,3.4103393415,1.342773432,4.714965801,-201.29999999999998,-158.1,-63.3,134308
0.047636632200886264,0.07260155574762317,1.0088718379091237,4.8751830855,2.0523071205,2.9220580935,-191.7,-155.7,-62.699999999999996,134594
0.06105366814377154,0.044573404123965925,1.0055149262678336,6.2637328845,3.5171508645,1.7013549735,-198.9,-150.9,-63.9,134883
0.05206794682422452,0.07124336337819484,0.9979618750749311,4.0054321125,0.7247924775,1.7166137625,-196.5,-153.29999999999998,-62.699999999999996,135170
0.056129985228951254,0.07457710828497345,1.0046756983575111,2.120971671,-1.7166137625,2.6931762585,-198.9,-148.5,-62.699999999999996,135456
0.045913343180699166,0.07161377947894802,1.0122287495504136,1.495361322,-3.143310534,4.241943342,-198.9,-158.1,-62.699999999999996,135742
0.04382077794190054,0.07951598962834917,1.0051552571634097,2.3422241115,-3.5018920755,4.9972533975,-196.5,-150.9,-61.5,136028
0.0258493353028065,0.0755648845536486,1.0002397794029494,3.128051745,-2.5711059465,4.791259746,-196.5,-150.9,-62.099999999999994,136315
0.023879862136878385,0.058525743919002345,1.0073132717899533,3.601074204,-1.37329101,3.8681030115,-201.29999999999998,-155.7,-63.3,136601
0.022525849335302807,0.05161131003827633,1.0028773528353914,4.623413067,0.0381469725,4.7683715625,-203.7,-155.7,-61.5,136886
0.017355982274741506,0.046795900728484996,0.9986812132837789,3.692626938,-1.4266967715,7.080078096,-203.7,-146.1,-63.9,137172
0.007877892663712457,0.05087047783676997,0.9877712504495864,0.7095336885,-4.791259746,9.6206664645,-198.9,-150.9,-62.699999999999996,137460
0.009724273756770064,0.0807507099641931,0.9959237501498621,-4.0359496905,-5.2185058380000005,11.5585326675,-203.7,-146.1,-62.699999999999996,137747
0.024002954209748892,0.0808741819977775,0.9982016544778803,-4.714965801,-3.250122057,9.5901488865,-201.29999999999998,-146.1,-61.5,138032
0.03655834564254062,0.057414495616742806,0.9990408823882029,-5.1345824985,-2.1133422765,6.240844701,-196.5,-150.9,-61.5,138318
0.021541112752338748,0.0558093591801457,0.9980817647764058,-5.6686401135,-1.8844604415,3.2424926625,-198.9,-138.9,-63.9,138603
0.011939931068439193,0.058649215952586736,0.999640330895576,-7.614135711,-2.7694702035,1.663208001,-203.7,-143.7,-63.3,138891
0.023141309699655343,0.04716631682923818,0.998321544179355,-8.6135863905,-2.5253295795,1.8081664965,-194.1,-146.1,-63.9,139177
0.02277203348104382,0.05445116681071737,0.9964033089557607,-7.1868896190000005,0.488281248,1.800537102,-198.9,-143.7,-60.9,139464
0.0258493353028065,0.05679713544882084,1.007792830595852,-6.607055637,2.532958974,0.442504881,-203.7,-141.29999999999998,-62.699999999999996,139751
0.022895125553914326,0.05901963205333992,1.0227790432801822,-2.2811889555000002,4.5700073055,-3.3187866075,-203.7,-141.29999999999998,-61.5,140038
0.03483505662235352,0.058772687986171135,1.0182232346241458,-0.381469725,3.4408569195,-3.8528442225,-196.5,-146.1,-62.699999999999996,140325
0.05083702609551945,0.05716755154957402,1.0035966910442393,0.1296997065,1.144409175,-2.7999877815,-201.29999999999998,-136.5,-62.699999999999996,140612
0.04812900049236829,0.05692060748240523,0.9976022059705071,-0.671386716,-0.717163083,-0.930786129,-198.9,-138.9,-61.5,140898
0.03902018709995076,0.0539572786763798,0.9940055149262679,-1.9760131755,-1.4114379825,0.1754760735,-203.7,-143.7,-60.9,141184
0.012678483505662235,0.048154093097913325,0.9925668385085721,-4.6768188285,-2.6473998915,1.6250610285,-203.7,-138.9,-63.3,141469
0.005046774987690792,0.04864798123225089,0.9922071694041482,-7.690429656,-3.7460326995,2.319335928,-198.9,-138.9,-62.099999999999994,141758
0.0086164451009355,0.036053833806642795,0.9932861767174199,-9.1323852165,-2.990722644,3.0593871945,-201.29999999999998,-143.7,-61.5,142044
0.09293451501723289,0.05099394987035436,1.0059944850737321,-8.712768519,-0.991821285,4.8294067185,-198.9,-129.29999999999998,-61.5,142330
-0.01674052191038897,0.04531423632547228,1.07900731327179,0.8316040005,4.1427612135,2.365112295,-196.5,-136.5,-62.099999999999994,142615
0.009354997538158542,0.024694406716878628,1.0659393358110538,0.534057615,-0.4196166975,-1.327514643,-198.9,-143.7,-62.699999999999996,142902
0.06659281142294436,0.11384121496481046,1.0327298885025775,0.503540037,-2.9525756715,-2.380371084,-198.9,-136.5,-62.699999999999996,143188
0.012555391432791729,0.04531423632547228,0.9965231986572354,1.0452270465,-2.0980834875,-2.89916991,-203.7,-138.9,-61.5,143474
0.014032496307237814,-0.018026916903321397,1.0256563961155736,1.8539428635,-0.4653930645,-4.4784545715,-196.5,-131.7,-59.699999999999996,143759
0.09084194977843427,0.06692184220274108,0.9918475002997242,2.1133422765,0.0534057615,-4.4784545715,-196.5,-141.29999999999998,-62.699999999999996,144046
0.041482028557360905,-0.019138165205580936,1.002997242536866,0.6332397435,-2.2354125885,-3.555297837,-198.9,-138.9,-62.099999999999994,144331
0.08185622845888725,0.04284479565378442,0.9826159932861768,0.869750973,-2.456665029,-0.8316040005,-201.29999999999998,-131.7,-62.699999999999996,144618
0.011939931068439193,0.04803062106432893,1.0032370219398155,-0.350952147,-2.090454093,7.247924775,-206.1,-134.1,-63.3,144904
0.016001969473165928,0.03185578466477343,0.9998801102985253,-0.61035156,-1.388549799,9.6359252535,-198.9,-124.5,-60.9,145189
0.016986706056129987,0.037535498209655516,0.9986812132837789,-1.739501946,-0.6332397435,9.7885131435,-201.29999999999998,-134.1,-62.099999999999994,145476
0.029911373707533235,0.025805655019138164,1.0059944850737321,-2.6016235245,0.259399413,9.0866088495,-198.9,-136.5,-60.3,145762
0.007631708517971443,0.03667119397456476,1.0112696319386165,-0.2059936515,3.2653808460000002,9.4833373635,-201.29999999999998,-129.29999999999998,-61.5,146047
0.04357459379615953,0.03383133720212372,1.0059944850737321,0.5722045875,4.42504881,7.705688445,-201.29999999999998,-134.1,-63.3,146333
0.06942392909896603,0.022718854179528337,1.015106102385805,0.091552734,3.3035278185,4.104614241,-198.9,-131.7,-59.699999999999996,146618
0.0793943870014771,0.04605506852697864,1.0145066538784318,-0.45776367,-0.1754760735,2.2048950105,-203.7,-124.5,-61.5,146905
0.06425406203840472,0.07852821335967404,1.0049154777604603,-0.1144409175,-2.975463855,0.8468627895,-198.9,-129.29999999999998,-61.5,147190
0.03483505662235352,0.08000987776268675,0.9964033089557607,0.793457028,-3.082275378,0.8468627895,-196.5,-126.89999999999999,-60.9,147476
0.03089611029049729,0.0377824422768243,0.9952044119410143,0.335693358,-0.4806518535,1.5182495055,-203.7,-131.7,-60.3,147761
0.03581979320531758,0.012100259291270527,0.9935259561203693,-0.3280639635,1.8081664965,1.8081664965,-203.7,-129.29999999999998,-60.9,148046
0.03840472673559823,0.024077046548956663,1.005754705670783,-1.007080074,2.8152465705,1.266479487,-203.7,-126.89999999999999,-61.5,148332
0.03643525356967011,0.057661439683911596,1.001318786716221,-0.6179809545,3.952026351,1.571655267,-206.1,-129.29999999999998,-60.9,148618
0.03508124076809453,0.07507099641931103,1.0106701834312433,-0.320434569,4.5700073055,2.929687488,-196.5,-122.1,-60.9,148903
0.05822255046774988,0.07173725151253241,1.0118690804459898,-0.0686645505,3.5781860205,2.624511708,-194.1,-122.1,-61.5,149189
0.07853274249138356,0.054080750709964195,1.0161851096990768,0.259399413,0.9536743125,1.342773432,-196.5,-126.89999999999999,-61.5,149474
0.044682422451994094,0.04766020496357575,1.0173840067138233,0.579833982,-6.118774389,2.5100707905,-198.9,-126.89999999999999,-61.5,149770
0.022648941408173313,0.061118656624274605,1.0122287495504136,0.595092771,-8.8882445925,2.304077139,-196.5,-122.1,-60.9,150065
0.007016248153618907,0.04889492529941968,1.000719338208848,0.9231567345,-8.7356567025,1.998901359,-198.9,-122.1,-60.3,150354
0.011078286558345642,0.029756760093838746,1.0046756983575111,0.778198239,-7.7133178395,2.7847289925,-201.29999999999998,-126.89999999999999,-59.699999999999996,150639
0.03581979320531758,0.020990245709346832,0.9970027574631339,0.8773803675,-5.386352517,4.2343139475000005,-196.5,-126.89999999999999,-60.3,150926
0.0396356474643033,0.02284232621311273,0.9973624265675578,0.8468627895,-3.021240222,6.332397435,-198.9,-122.1,-61.5,151211
0.03828163466272772,0.030868008396098285,0.9955640810454381,-0.0381469725,-2.2354125885,9.3002318955,-198.9,-117.3,-58.5,151498
0.0499753815854259,0.03815285837757748,1.001318786716221,-0.9384155235,-1.892089836,10.5819701715,-201.29999999999998,-119.69999999999999,-62.099999999999994,151784
0.013047759724273756,0.0754414125200642,1.0101906246253447,0.411987303,0.3280639635,8.9187621705,-203.7,-107.7,-59.099999999999994,152070
0.005046774987690792,0.056426719348067665,1.0153458817887544,0.3585815415,-0.656127927,6.973266573,-196.5,-122.1,-61.5,152355
0.034958148695224026,0.050253117668848005,1.0127083083563122,0.3433227525,-2.395629873,4.714965801,-198.9,-119.69999999999999,-60.9,152642
0.062284588872476614,0.05667366341523645,1.0098309555209208,0.4196166975,-4.409790021,3.738403305,-196.5,-117.3,-59.699999999999996,152927
0.08382570162481537,0.04766020496357575,0.9998801102985253,0.6027221655,-5.752563453,4.013061507,-201.29999999999998,-117.3,-57.9,153212
0.07816346627277203,0.03555994567230522,1.0047955880589858,0.7858276335,-5.615234352,5.828857398,-198.9,-117.3,-57.9,153496
0.08099458394879369,0.04482034819113471,1.0049154777604603,0.640869138,-6.042480444,7.293701142,-201.29999999999998,-114.89999999999999,-60.9,153781
0.05822255046774988,0.03679466600814915,1.0071933820884786,0.396728514,-6.86645505,9.445190391,-206.1,-112.5,-59.099999999999994,154068
0.03212703101920236,0.03296703296703297,1.015106102385805,0.701904294,-7.6522826835,11.825561475,-203.7,-112.5,-59.099999999999994,154353
0.023879862136878385,0.04049882701568095,1.0004795588058986,1.0147094685,-8.9035033815,13.3132934025,-208.5,-112.5,-61.5,154638
0.02535696701132447,0.03568341770588961,0.9982016544778803,0.8621215785,-7.5149535825000005,14.3661498435,-206.1,-112.5,-59.099999999999994,154923
0.03828163466272772,0.027534263489319668,0.9985613235823043,0.885009762,-5.9432983155,15.777587826,-201.29999999999998,-107.7,-57.9,155211
0.05711472181191531,0.04185701938510927,1.0010790073132718,0.9078979455,-4.867553691,16.8380736615,-206.1,-112.5,-59.099999999999994,155497
0.05465288035450517,0.07161377947894802,1.00671382328258,0.8926391565,-4.4784545715,13.839721623,-208.5,-114.89999999999999,-59.099999999999994,155782
0.06930083702609552,0.08371403877021855,1.007073492387004,0.656127927,-4.8751830855,9.3917846295,-208.5,-110.1,-59.699999999999996,156069
0.09588872476612506,0.06334115322879368,1.007073492387004,0.5111694315,-5.3329467555,6.042480444,-206.1,-110.1,-57.3,156354
0.12309207287050714,0.022965798246697124,1.0074331614914278,0.061035156,-7.1487426465,3.616332993,-208.5,-110.1,-59.099999999999994,156641
0.06622353520433284,0.04728978886282257,1.0045558086560364,0.198364257,-9.948730428,4.3716430485,-203.7,-102.89999999999999,-57.9,156928
0.0465288035450517,0.0718607235461168,0.9978419853734565,0.091552734,-9.3612670515,2.3880004785,-198.9,-105.3,-59.099999999999994,157214
0.03434268833087149,0.07309544388196074,0.9995204411941014,0.076293945,-7.1640014355,-0.0686645505,-208.5,-105.3,-60.3,157498
0.056745445593303794,0.06358809729596246,0.9955640810454381,-0.0839233395,-5.172729471,-2.8457641485,-210.9,-110.1,-57.3,157786
0.08345642540620384,0.046919372762069395,0.9953243016424889,-0.15258789,-2.471923818,-3.768920883,-208.5,-102.89999999999999,-58.5,158070
0.09219596258000985,0.02679343128781331,1.002038124925069,-0.381469725,-1.0604858355,-2.9983520385,-203.7,-105.3,-58.5,158356
0.08481043820777942,0.037288554142486725,1.007073492387004,-0.4501342755,-1.2741088815,-2.3880004785,-218.1,-110.1,-56.699999999999996,158641
0.07680945347119646,0.055068526978639336,1.0011988970147465,-0.45776367,-2.3117065335,-4.058837874,-213.29999999999998,-107.7,-58.5,158928
0.060315115706548496,0.06506976169897519,1.002757463133917,-0.717163083,-2.3422241115,-6.149291967,-208.5,-102.89999999999999,-56.699999999999996,159217
0.033973412112259974,0.06519323373255957,1.003716580745714,-0.2975463855,-1.5640258725,-5.2185058380000005,-208.5,-95.7,-56.1,159503
0.03766617429837518,0.06482281763180639,1.005754705670783,-0.106811523,-0.9689331015,-1.846313469,-198.9,-105.3,-58.5,159787
0.0483751846381093,0.052599086306951474,1.008392279103225,0.1449584955,-0.350952147,1.861572258,-208.5,-100.5,-56.1,160072
0.059330379123584444,0.057414495616742806,1.005754705670783,0.244140624,-0.885009762,4.8446655075,-206.1,-100.5,-57.3,160358
0.06979320531757754,0.06716878626990987,1.008032609998801,0.4959106425,-1.403808588,6.042480444,-201.29999999999998,-100.5,-56.1,160643
0.06474643032988675,0.06346462526237807,1.0075530511929025,0.534057615,-1.6403198175,5.95092771,-203.7,-102.89999999999999,-57.9,160927
0.06659281142294436,0.04593159649339425,1.011749190744515,0.2365112295,-3.2272338735,5.0888061315,-206.1,-102.89999999999999,-56.1,161213
0.06979320531757754,0.052846030374120265,1.0098309555209208,0.2822875965,-5.4092407005,4.608154278,-203.7,-100.5,-56.1,161498
0.08985721319547021,0.05198172613902951,1.0,0.2975463855,-6.179809545,4.211425764,-210.9,-95.7,-58.5,161786
0.060315115706548496,0.06531670576614397,0.9954441913439636,0.549316404,-2.7084350475,5.889892554,-206.1,-100.5,-56.1,162071
0.06696208764155588,0.05420422274354859,0.9985613235823043,0.4501342755,-1.1520385695,4.211425764,-210.9,-102.89999999999999,-57.9,162356
0.06302314130969966,0.04642548462773182,1.002757463133917,0.717163083,0.15258789,4.028320296,-206.1,-100.5,-59.099999999999994,162641
0.04751354012801576,0.06050129645635264,1.004316029253087,0.3280639635,0.595092771,2.9373168825000002,-206.1,-98.1,-57.9,162928
0.04899064500246184,0.058525743919002345,0.9995204411941014,0.1296997065,1.083374019,1.541137689,-206.1,-95.7,-56.699999999999996,163214
0.05157557853274249,0.05235214223978269,1.002997242536866,0.0839233395,1.8844604415,0.4959106425,-208.5,-93.3,-56.1,163499
0.0638847858197932,0.03309050500061736,1.0040762498501379,-0.0076293945,1.98364257,0.1296997065,-208.5,-95.7,-57.9,163784
0.06499261447562776,0.025805655019138164,1.0022779043280183,0.0839233395,2.624511708,3.143310534,-201.29999999999998,-93.3,-57.9,164070
0.04579025110782865,0.04951228546734165,0.9955640810454381,0.7705688445,5.3176879665,5.538940407,-203.7,-100.5,-55.5,164357
0.03914327917282127,0.06037782442276824,0.9961635295528114,0.6637573215,7.690429656,7.202148408,-206.1,-100.5,-57.9,164643
0.05416051206302314,0.039881466847758985,1.0069536026855292,0.3890991195,9.506225547,6.4926147195,-208.5,-98.1,-57.3,164927
0.04345150172328902,0.02679343128781331,1.0147464332813811,0.534057615,8.6593627575,7.247924775,-206.1,-95.7,-59.099999999999994,165212
0.03705071393402265,0.04605506852697864,1.015825440594653,1.0299682575,5.5007934345,10.238647419,-203.7,-102.89999999999999,-57.3,165503
0.04579025110782865,0.06692184220274108,1.0141469847740079,1.3351440375,3.1661987175,13.4201049255,-203.7,-102.89999999999999,-57.3,165790
0.04529788281634663,0.05099394987035436,1.0113895216400912,1.251220698,1.22070312,16.464233331,-206.1,-102.89999999999999,-56.699999999999996,166075
0.04542097488921713,0.047042844795653786,1.008751948207649,1.5029907165,-0.6027221655,19.409179608,-203.7,-98.1,-57.9,166362
0.03975873953717381,0.06013088035559946,1.0004795588058986,1.6098022395,-0.289916991,19.6914672045,-201.29999999999998,-100.5,-59.099999999999994,166647
0.059084194977843424,0.025435238918384985,1.0079127202973264,0.9078979455,1.98364257,12.039184521,-206.1,-95.7,-56.699999999999996,166936
0.08419497784342689,0.03827633041116187,1.0021580146265436,0.686645505,1.281738276,10.0021361895,-206.1,-95.7,-59.099999999999994,167221
0.09453471196454949,0.03173231263118904,1.0022779043280183,0.396728514,1.5945434505,7.3471069035,-215.7,-95.7,-58.5,167508
0.06560807483998031,0.027287319422150885,1.004316029253087,0.564575193,1.907348625,4.6005248835,-208.5,-93.3,-58.5,167793
0.0844411619891679,0.017039140634646253,1.002757463133917,0.320434569,1.480102533,1.9607543865000001,-206.1,-95.7,-58.5,168079
0.12284588872476612,-0.025188294851216198,1.008751948207649,0.793457028,2.4185180565,0.3128051745,-198.9,-98.1,-58.5,168364
0.1344165435745938,-0.056303247314483267,1.0252967270111497,1.7013549735,1.83105468,-1.6403198175,-203.7,-98.1,-58.5,168648
0.11964549483013294,-0.025188294851216198,1.0236182711905046,3.326416002,-1.37329101,-2.9830932495,-206.1,-93.3,-58.5,168934
0.08234859675036928,0.04531423632547228,0.9905287135835031,4.455566388,-4.455566388,-2.365112295,-201.29999999999998,-90.89999999999999,-56.699999999999996,169220
0.0739783357951748,0.04840103716508211,0.9886104783599089,4.653930645,-1.159667964,-1.159667964,-198.9,-95.7,-57.9,169508
0.08604135893648449,0.03914063464625262,0.9875314710466371,4.0054321125,2.182006827,-0.839233395,-198.9,-98.1,-57.3,169794
0.0896110290497292,0.04235090751944685,0.9869320225392639,2.700805653,3.5324096535,-1.1520385695,-203.7,-93.3,-56.699999999999996,170078
0.08727227966518956,0.0395110507470058,0.994964632538065,0.350952147,2.5558471575,-0.8621215785,-206.1,-100.5,-57.9,170363
0.12284588872476612,0.0197555253735029,1.002038124925069,-1.968383781,0.4806518535,0.061035156,-201.29999999999998,-95.7,-58.5,170650
0.13343180699162974,0.025682182985553772,0.9958038604483875,-1.9760131755,0.350952147,1.4114379825,-203.7,-93.3,-57.3,170935
0.1256770064007878,0.056426719348067665,0.9931662870159453,-2.426147451,0.0991821285,1.510620111,-206.1,-93.3,-57.3,171219
0.11632200886262925,0.06432892949746882,1.0035966910442393,-3.524780259,-0.213623046,-0.6027221655,-208.5,-88.5,-56.699999999999996,171505
0.09564254062038405,0.07346585998271392,1.0152259920872797,-2.2201537995,-1.846313469,-9.4375609965,-206.1,-88.5,-57.3,171790
0.08148695224027573,0.07087294727744166,1.0183431243256205,-1.205444331,-3.35693358,-12.8402709435,-201.29999999999998,-86.1,-60.3,172078
0.09785819793205318,0.04778367699716014,1.015825440594653,1.3351440375,-3.1356811395,-12.5350951635,-201.29999999999998,-93.3,-56.699999999999996,172364
0.09896602658788774,0.03938757871342141,1.0035966910442393,4.699707012,-1.2435913035,-9.643554648,-203.7,-90.89999999999999,-59.099999999999994,172650
0.07730182176267848,0.05815532781824917,0.9948447428365903,5.310058572,-0.91552734,-7.675170867,-201.29999999999998,-93.3,-57.9,172934
0.047636632200886264,0.06926781084084455,0.9918475002997242,2.6779174695,-2.6931762585,-10.4598998595,-206.1,-90.89999999999999,-56.699999999999996,173222
0.05428360413589365,0.06531670576614397,1.000719338208848,0.076293945,-3.7612914885,-15.0527953485,-198.9,-86.1,-58.5,173507
0.06757754800590841,0.04407951598962835,1.0103105143268194,0.3280639635,-1.6708373955,-15.6173705415,-201.29999999999998,-83.7,-60.3,173791
0.06142294436238306,0.03568341770588961,1.011749190744515,3.3187866075,0.930786129,-14.083862247,-201.29999999999998,-88.5,-59.699999999999996,174076
0.08148695224027573,0.04716631682923818,1.0088718379091237,4.989624003,0.335693358,-14.1677855865,-203.7,-88.5,-56.699999999999996,174362
0.07877892663712457,0.06321768119520929,1.013787315669584,4.7836303515,-1.358032221,-13.7557982835,-203.7,-93.3,-58.5,174650
0.05760709010339734,0.08927028028151623,1.0099508452223953,5.554199196,-2.685546864,-11.734008741,-201.29999999999998,-98.1,-57.3,174936
0.060930576070901035,0.10272873194221509,1.0028773528353914,6.3705444075,-2.44140624,-8.54492184,-203.7,-90.89999999999999,-57.9,175220
0.06659281142294436,0.055315471045808126,1.005035367461935,6.362915013,-1.464843744,-8.6288451795,-198.9,-95.7,-60.3,175505
0.06339241752831118,0.025188294851216198,1.0073132717899533,7.446289032,0.198364257,-9.384155235,-203.7,-90.89999999999999,-56.699999999999996,175793
0.0673313638601674,0.03358439313495493,0.9991607720896775,9.2849731065,2.868652332,-7.2097778025,-201.29999999999998,-93.3,-59.099999999999994,176078
0.05206794682422452,0.08038029386343994,0.9910082723894017,9.231567345,4.257202131,-4.8904418745000005,-203.7,-95.7,-57.3,176364
0.09453471196454949,0.0951969378935671,0.9928066179115214,1.4266967715,-2.74658202,-8.4762572895,-201.29999999999998,-90.89999999999999,-54.9,176650
0.06954702117183653,0.07939251759476479,0.9989209926867282,1.06811523,-1.7776489185,-6.683349582,-201.29999999999998,-100.5,-57.9,176936
0.05194485475135401,0.07074947524385726,1.0028773528353914,1.113891597,-0.396728514,-4.470825177,-203.7,-90.89999999999999,-58.5,177224
0.08087149187592318,0.05901963205333992,1.0101906246253447,0.274658202,-1.3046264595000001,-5.5313110125,-203.7,-95.7,-58.5,177509
0.06154603643525357,0.052846030374120265,1.0209806977580627,1.8692016525,-1.0299682575,-8.682250941,-203.7,-95.7,-58.5,177796
0.05096011816838995,0.08717125571058155,1.015465771490229,4.928588847,0.091552734,-11.2533568875,-203.7,-95.7,-59.099999999999994,178080
0.06142294436238306,0.09470304975922954,1.0116293010430404,6.423950169,0.2212524405,-10.9481811075,-201.29999999999998,-95.7,-58.5,178368
0.02744953225012309,0.08828250401284109,1.0115094113415657,7.751464812,0.0228881835,-7.537841766,-206.1,-95.7,-58.5,178653
0.015386509108813392,0.10285220397579949,1.0014386764176957,7.2402953805,-2.456665029,-4.6157836725,-203.7,-93.3,-59.699999999999996,178938
-0.009601181683899557,0.09124583281886653,1.002757463133917,4.302978498,-3.936767562,-1.4572143495,-206.1,-98.1,-57.3,179222
-0.004923682914820286,0.07062600321027288,1.00671382328258,4.3411254705,-2.487182607,-0.4348754865,-213.29999999999998,-98.1,-59.099999999999994,179508
0.024618414574101428,0.07395974811705149,1.0011988970147465,4.241943342,-1.708984368,1.2130737255,-210.9,-100.5,-56.699999999999996,179796
0.06843919251600197,0.062353376960118535,0.998321544179355,1.5258789,-4.0512084795,-0.7247924775,-215.7,-93.3,-58.5,180081
0.08419497784342689,0.06260032102728733,1.0,-1.2130737255,-7.369995087,-2.1743774325,-208.5,-90.89999999999999,-59.099999999999994,180366
0.0673313638601674,0.09260402518829484,0.9967629780601847,-3.936767562,-8.7814330695,-2.6321411025,-213.29999999999998,-98.1,-58.5,180651
0.06117676021664205,0.07803432522533646,0.9962834192542861,-6.149291967,-7.7590942065,-2.8305053595,-215.7,-100.5,-59.099999999999994,180938
0.056129985228951254,0.07050253117668848,0.9866922431363145,-5.966186499,-4.791259746,-0.350952147,-218.1,-98.1,-57.3,181224
0.0880108321024126,0.09408568959130757,1.0081524997002758,-0.7553100555,-1.3656616155,2.853393543,-218.1,-102.89999999999999,-56.699999999999996,181507
0.068931560807484,0.0951969378935671,1.0164248891020262,0.9841918905,0.091552734,0.3280639635,-213.29999999999998,-100.5,-59.699999999999996,181793
0.045667159034958146,0.0737128040498827,1.0187027934300443,3.5781860205,1.449584955,0.350952147,-213.29999999999998,-100.5,-57.9,182078
0.02744953225012309,0.10853191752068156,0.9973624265675578,6.0653686275,2.426147451,3.128051745,-215.7,-98.1,-57.9,182366
0.0012309207287050715,0.09025805655019138,0.9829756623906006,0.793457028,-0.15258789,1.922607414,-225.29999999999998,-100.5,-58.5,182652
0.00775480059084195,0.05482158291147055,0.9971226471646085,-4.1580200025,-3.0441284055,-0.167846679,-220.5,-98.1,-58.5,182938
0.025603151157065487,0.04864798123225089,0.9923270591056228,-7.873535124,-3.417968736,0.5874633765,-222.9,-98.1,-58.5,183223
0.02708025603151157,0.06556364983331275,1.0017983455221195,-9.9105834555,-2.2659301665,2.471923818,-227.7,-95.7,-57.9,183511
0.0011078286558345643,0.08531917520681566,0.9943651840306917,-10.848998979,1.174926753,2.487182607,-222.9,-95.7,-57.9,183796
0.05711472181191531,0.06284726509445611,1.0274547416376933,-8.453369106,5.691528297,-5.0430297645,-227.7,-102.89999999999999,-56.699999999999996,184080
0.059945839487936976,0.0161748363995555,1.0317707708907804,-10.7192992725,11.779785108,-8.407592739,-232.5,-100.5,-57.9,184365
0.08382570162481537,-0.012717619459192493,0.9858530152259921,-13.916015568,13.946533146,-9.338378868,-220.5,-102.89999999999999,-59.099999999999994,184651
0.11312161496799607,-0.005803185578466478,0.9598369500059944,-10.5972289605,8.560180629,-7.247924775,-225.29999999999998,-98.1,-56.699999999999996,184941
0.05403741999015264,0.04173354735152488,0.9518043400071934,-5.7144164805,6.3705444075,-1.235961909,-227.7,-98.1,-57.9,185227
0.040497291974396846,0.12297814545005556,1.025176837309675,-8.331298794,3.173828112,5.3787231225,-230.1,-102.89999999999999,-57.9,185512
-0.01243229935992122,0.0755648845536486,0.981177316868481,-20.5001830215,6.25610349,8.3389281885,-232.5,-98.1,-58.5,185797
0.07471688823239783,-0.032843560933448576,1.0202613595492147,-24.7116087855,8.407592739,8.3236693995,-232.5,-98.1,-60.3,186084
-0.06142294436238306,0.10050623533769601,1.0131878671622108,4.608154278,41.229247878,10.4293822815,-234.89999999999998,-98.1,-57.3,186369
-0.0022156573116691287,0.09223360908754168,1.0187027934300443,-0.595092771,39.703368978,5.279540994,-230.1,-95.7,-58.5,186653
0.027572624322993598,0.03148536856402025,1.0314111017863565,-1.7013549735,35.7131956545,1.06811523,-232.5,-95.7,-59.099999999999994,186937
0.03151157065484983,0.03667119397456476,1.0360868001438677,-1.144409175,28.121948127,-0.6332397435,-234.89999999999998,-98.1,-59.699999999999996,187222
0.0012309207287050715,0.06951475490801333,1.0274547416376933,-1.1367797805,20.401000893,1.3504028265,-230.1,-100.5,-58.5,187511
-0.12518463810930577,0.09494999382639832,1.0276945210406425,-0.366210936,15.045165954,3.8681030115,-230.1,-93.3,-60.3,187796
-0.10081240768094535,0.10174095567353994,1.008392279103225,0.076293945,12.3825072735,4.4021606265,-230.1,-95.7,-59.699999999999996,188081
-0.04197439684884294,0.047042844795653786,1.0116293010430404,0.0534057615,11.7568969245,3.1051635615,-225.29999999999998,-95.7,-60.3,188366
0.030773018217626784,0.0359303617730584,0.9980817647764058,-0.228881835,12.420654246,1.785278313,-234.89999999999998,-93.3,-60.9,188652
0.0791482028557361,0.024694406716878628,1.0099508452223953,-1.0147094685,15.075683532,3.8986205895,-230.1,-95.7,-59.699999999999996,188937
0.08911866075824718,0.02481787875046302,1.0236182711905046,-1.892089836,14.6865844125,5.0125121865,-225.29999999999998,-95.7,-58.5,189222
0.05489906450024618,0.03654772194098037,1.046397314470687,-5.18798826,12.3825072735,5.447387673,-234.89999999999998,-102.89999999999999,-57.9,189508
0.016986706056129987,0.0556858871465613,1.0428006234264477,-10.1242065015,7.965087858,6.3095092515,-232.5,-95.7,-59.099999999999994,189795
-0.018586903003446578,0.09544388196073589,1.0297326459657115,-15.0222777705,3.8833618005,7.949829069,-230.1,-93.3,-58.5,190081
-0.0189561792220581,0.07840474132608964,1.0170243376093993,-18.6996459195,1.67846679,9.262084923,-230.1,-95.7,-59.099999999999994,190367
0.0066469719350073855,0.027287319422150885,0.9985613235823043,-20.0424193515,1.8081664965,10.711669878,-237.29999999999998,-98.1,-59.099999999999994,190652
-0.011447562776957163,0.013088035559945673,0.9932861767174199,-20.14160148,3.6392211765,12.710571237,-237.29999999999998,-93.3,-57.9,190938
-0.025233874938453964,0.014940116063711569,0.9896894856731807,-18.7759398645,5.737304664,14.0609740635,-234.89999999999998,-81.3,-58.5,191222
-0.00947808961102905,0.006173601679219657,0.9950845222395396,-14.450073183,11.3296508325,15.609741147,-237.29999999999998,-98.1,-59.699999999999996,191509
-0.0379123584441162,0.0033337449067786145,1.0094712864164967,-14.1677855865,12.954711861,16.0140990555,-237.29999999999998,-88.5,-58.5,191794
-0.05502215657311669,0.032596616866279786,1.0074331614914278,-14.9917601925,13.1149291455,14.5339965225,-234.89999999999998,-88.5,-58.5,192079
-0.0654849827671098,0.057661439683911596,1.0025176837309675,-15.289306578,13.656616155,12.237548778,-232.5,-90.89999999999999,-60.3,192365
-0.049236829148202856,0.044326460056797135,1.000719338208848,-14.5645141005,14.282226504,9.8953246665,-239.7,-86.1,-59.099999999999994,192652
-0.04394387001477105,0.004074577108284973,1.0021580146265436,-14.984130798,15.8615111655,8.422851528,-234.89999999999998,-83.7,-59.099999999999994,192937
-0.05969965534219596,-0.026916903321397703,0.9960436398513368,-15.4495238625,17.745971607,6.7825317105,-232.5,-83.7,-60.3,193224
-0.07471688823239783,-0.025188294851216198,0.9880110298525356,-13.671874944,18.7911986535,4.4784545715,-232.5,-81.3,-59.099999999999994,193509
-0.1207533234859675,0.0007408322015063588,0.9871718019422132,-8.140563931500001,22.140502839,0.5111694315,-239.7,-76.5,-59.099999999999994,193795
-0.10659773510585918,0.0038276330411161873,0.9906486032849778,-4.898071269,22.994995023,-1.312255854,-237.29999999999998,-78.89999999999999,-58.5,194081
-0.08825701624815362,0.01024817878750463,0.9877712504495864,-1.5792846615,23.8113402345,-2.822875965,-227.7,-81.3,-60.3,194367
-0.1189069423929099,0.001728608470181504,0.9858530152259921,2.655029286,24.5742796845,-3.2272338735,-234.89999999999998,-81.3,-58.5,194652
-0.1258000984736583,-0.0038276330411161873,1.002757463133917,7.049560518,23.0636595735,-5.18798826,-232.5,-83.7,-59.699999999999996,194939
-0.08973412112259971,-0.030868008396098285,1.0304519841745594,6.8435668665,20.8511351685,-6.393432591,-234.89999999999998,-83.7,-60.3,195226
-0.0585918266863614,-0.02370663044820348,1.0249370579067258,4.4631957825,16.2124633125,-5.4244994895,-232.5,-86.1,-60.9,195512
-0.06290004923682915,0.02950981602666996,1.0357271310394438,6.3095092515,9.368896446,-5.737304664,-232.5,-90.89999999999999,-60.3,195796
-0.08690300344657804,0.016298308433139893,1.0406426087999041,3.723144516,3.7612914885,-5.828857398,-227.7,-76.5,-60.3,196082
-0.13884785819793205,0.0161748363995555,1.0049154777604603,-0.213623046,-4.3106078925,-8.880615198,-230.1,-83.7,-59.099999999999994,196366
-0.16137370753323485,0.04716631682923818,1.0086320585061743,-0.122070312,-5.6838989025,-10.757446245,-237.29999999999998,-86.1,-60.3,196653
-0.19066962087641556,-0.005803185578466478,0.9888502577628582,-0.427246092,-6.2332153065,-15.197753844,-227.7,-86.1,-58.5,196937
-0.1740521910388971,-0.06556364983331275,0.9733844862726292,5.142211893,-7.965087858,-16.1361693675,-230.1,-88.5,-60.3,197222
-0.13552437223042835,-0.06692184220274108,0.9947248531351157,8.6441039685,-6.668090793,-13.5116576595,-230.1,-88.5,-61.5,197507
-0.11349089118660759,-0.07976293369551797,1.0015585661191704,6.134033178,-2.853393543,-12.9623412555,-232.5,-88.5,-60.3,197793
-0.10425898572131954,-0.0738362760834671,1.0032370219398155,3.982543929,-1.0604858355,-13.198852485,-227.7,-90.89999999999999,-61.5,198079
-0.11398325947808961,-0.04049882701568095,0.9948447428365903,3.50952147,-0.7400512665,-11.7721557135,-222.9,-95.7,-60.9,198364
-0.0931806991629739,-0.014816644030127175,0.9889701474643328,5.096435526,-0.717163083,-10.9024047405,-230.1,-86.1,-62.099999999999994,198649
-0.03323485967503693,0.01777997283615261,1.0044359189545617,8.224487271,0.381469725,-16.4566039365,-225.29999999999998,-95.7,-59.099999999999994,198934
0.02117183653372723,-0.022718854179528337,1.020860808056588,11.7263793465,-4.6615600395,-21.4767455175,-225.29999999999998,-90.89999999999999,-62.699999999999996,199219
0.2275972427375677,0.08840597604642549,1.0573072773048795,47.0962522485,-35.5911253425,-26.596069227,-225.29999999999998,-86.1,-60.3,199506
-0.043205317577548,0.07679960488949253,1.2209567198177675,45.608520321,-22.796630766,-11.398315383,-220.5,-100.5,-60.3,199790
-0.21331856228458887,0.011976787257686134,0.9458098549334613,16.311645441,1.403808588,3.0136108275,-220.5,-100.5,-63.9,200075
-0.25443131462333823,-0.028892455858747994,0.8225632418175278,4.501342755,7.2402953805,-0.9994506795,-213.29999999999998,-90.89999999999999,-61.5,200360
0.02498769079271295,-0.04519076429188789,0.9808176477640571,19.3557738465,-12.6419066865,-12.771606393,-222.9,-102.89999999999999,-62.099999999999994,200647
-0.08468734613490891,0.030991480429682677,1.0643807696918834,23.269653225,3.097534167,-12.573242136,-215.7,-100.5,-62.099999999999994,200931
0.016494337764647957,0.029386343993085567,0.9958038604483875,3.1204223505,-8.804321253,-20.5154418105,-220.5,-100.5,-60.3,201218
0.0029542097488921715,0.06173601679219657,1.0263757343244215,3.50952147,-9.109497033,-18.5928343965,-218.1,-98.1,-62.699999999999996,201504
-0.05231413096996553,0.05185825410544512,0.9857331255245174,0.7858276335,-8.3236693995,-16.250610285,-220.5,-105.3,-60.9,201789
-0.012309207287050714,0.04728978886282257,0.9826159932861768,3.601074204,-12.313842723,-20.675659095,-208.5,-107.7,-62.699999999999996,202074
-0.005908419497784343,0.052846030374120265,1.0124685289533628,9.048461877,-9.399414024,-22.247314362,-218.1,-107.7,-60.9,202360
-0.04542097488921713,0.059760464254846275,1.013787315669584,11.7111205575,-4.4326782045,-20.0271605625,-220.5,-102.89999999999999,-60.3,202645
-0.018340718857705565,0.06383504136313126,1.027574631339168,12.680053659,-2.28881835,-18.218994066,-215.7,-107.7,-60.9,202931
-0.008985721319547021,0.06074824052352142,1.0145066538784318,11.4822387225,-0.0686645505,-17.6925658455,-210.9,-112.5,-62.099999999999994,203217
-0.026834071885770555,0.05000617360167922,1.0051552571634097,11.047363236,-1.2283325145,-16.845703056,-208.5,-102.89999999999999,-62.699999999999996,203503
-0.0327424913835549,0.14211631065563649,0.9910082723894017,18.203735277,-0.2517700185,-12.8860473105,-206.1,-105.3,-63.9,203788
-0.02892663712456918,0.1186566242746018,0.9887303680613835,17.929077075,-0.961303707,-14.6408080455,-206.1,-105.3,-62.099999999999994,204073
-0.0241260462826194,0.07000864304235091,1.000719338208848,17.7841185795,-5.0277709755,-14.3661498435,-201.29999999999998,-112.5,-63.3,204358
-0.01120137863121615,0.0664279540684035,1.0522719098429445,18.081664965,-6.5307616920000005,-10.040283162,-203.7,-110.1,-62.099999999999994,204644
-0.034588872476612506,0.12458328188665267,1.0209806977580627,13.4658812925,-1.8692016525,-5.294799783,-210.9,-114.89999999999999,-63.3,204929
0.008985721319547021,0.0881590319792567,1.027574631339168,9.0408324825,-1.3809204045,-3.96728514,-203.7,-117.3,-60.3,205214
0.01464795667159035,0.061242128657858996,1.0133077568636855,9.4375609965,-0.7095336885,-1.785278313,-198.9,-114.89999999999999,-62.699999999999996,205499
0.006893156080748399,0.07000864304235091,1.0110298525356671,10.108947712500001,-2.1438598545,-0.4196166975,-194.1,-112.5,-61.5,205788
0.0012309207287050715,0.10396345227805902,1.0097110658194461,8.178710904,-5.325317361,0.9689331015,-201.29999999999998,-112.5,-62.099999999999994,206073
0.020433284096504186,0.1116187183602914,1.02014146984774,8.621215785,-5.523681618,-0.91552734,-201.29999999999998,-114.89999999999999,-60.9,206359
0.008370260955194485,0.08124459809853068,0.9994005514926267,10.559081988,-3.646850571,-2.685546864,-206.1,-110.1,-60.9,206644
0.009601181683899557,0.03790591431040869,0.9876513607481118,10.116577107,-3.189086901,-3.860473617,-191.7,-114.89999999999999,-62.099999999999994,206930
-0.00947808961102905,0.007284849981479195,1.0032370219398155,9.704589804,-1.281738276,-2.624511708,-198.9,-117.3,-60.3,207215
-0.03508124076809453,0.054945054945054944,0.9914878311953004,10.101318318,1.1978149365,4.5089721495,-196.5,-117.3,-62.099999999999994,207500
-0.03348104382077794,0.11717495987158909,0.9944850737321664,7.3318481145,1.0910034135,10.864257768,-201.29999999999998,-114.89999999999999,-62.099999999999994,207784
-0.0034465780403741997,0.11013705395727867,1.007073492387004,5.9738158935,0.4043579085,12.4893187965,-196.5,-114.89999999999999,-60.9,208070
0.0023387493845396356,0.11310038276330411,1.0049154777604603,6.1416625725,-0.198364257,11.3754271995,-201.29999999999998,-114.89999999999999,-60.9,208358
-0.002461841457410143,0.10260525990863069,0.9998801102985253,5.8746337650000005,-1.586914056,1.419067377,-198.9,-112.5,-63.3,208645
-0.010093549975381585,0.10174095567353994,1.0021580146265436,5.477905251,-1.9302368085,3.0593871945,-196.5,-114.89999999999999,-62.099999999999994,208930
0.0030773018217626785,0.07642918878873935,0.9972425368660832,3.997802718,-3.005981433,6.988525362,-196.5,-119.69999999999999,-62.699999999999996,209216
0.020433284096504186,0.050500061736016795,0.9925668385085721,3.112792956,-3.7307739105,10.360717731,-189.29999999999998,-122.1,-62.099999999999994,209501
0.004923682914820286,0.06766267440424743,0.9965231986572354,1.785278313,-3.7460326995,14.0304564855,-194.1,-117.3,-60.3,209789
-0.03089611029049729,0.1206321768119521,0.9919673900011989,-0.473022459,-3.4866332865,15.1443480825,-189.29999999999998,-119.69999999999999,-62.099999999999994,210074
-0.03175775480059084,0.1169280158044203,1.00335691164129,-1.7776489185,-3.036499011,11.123657181,-198.9,-114.89999999999999,-60.9,210360
-0.0396356474643033,0.09161624891961971,1.0069536026855292,-0.427246092,-0.885009762,8.4457397115,-194.1,-114.89999999999999,-62.099999999999994,210645
-0.03865091088133924,0.07865168539325842,1.0131878671622108,0.396728514,-0.61035156,5.8822631595,-196.5,-114.89999999999999,-60.9,210934
-0.029419005416051205,0.10013581923694283,1.0183431243256205,2.044677726,-1.6403198175,8.331298794,-194.1,-114.89999999999999,-63.3,211220
-0.01932545544066962,0.10260525990863069,1.0159453302961277,4.88281248,-1.235961909,10.7803344285,-194.1,-107.7,-62.699999999999996,211505
-0.009601181683899557,0.09803679466600815,1.0010790073132718,6.240844701,-1.770019524,13.1454467235,-189.29999999999998,-117.3,-60.9,211790
-0.027695716395864108,0.08247931843437462,0.9922071694041482,5.523681618,-1.464843744,13.198852485,-189.29999999999998,-114.89999999999999,-62.699999999999996,212076
-0.023633677991137372,0.06432892949746882,0.994964632538065,4.333496076,-0.3128051745,10.0173949785,-194.1,-119.69999999999999,-62.699999999999996,212361
-0.001600196947316593,0.0666748981355723,0.9970027574631339,3.082275378,0.7095336885,10.940551713,-191.7,-114.89999999999999,-60.3,212647
0.0012309207287050715,0.10062970737128041,1.0005994485073733,0.5722045875,-0.2059936515,13.214111274,-196.5,-119.69999999999999,-60.9,212932
0.022648941408173313,0.06334115322879368,1.02014146984774,-1.495361322,-2.7999877815,8.8729858035,-191.7,-110.1,-62.099999999999994,213217
-0.014894140817331364,0.08445487097172491,1.0005994485073733,4.9057006635,-0.3738403305,7.5912475275,-194.1,-105.3,-61.5,213505
-0.025233874938453964,0.07877515742684282,1.0022779043280183,2.7542114145,-2.5863647355,8.453369106,-189.29999999999998,-107.7,-60.3,213791
-0.02892663712456918,0.08964069638226942,1.0076729408943772,1.800537102,-3.295898424,8.2473754545,-194.1,-114.89999999999999,-59.699999999999996,214076
-0.030649926144756277,0.10038276330411162,1.0062342644766815,2.502441396,-2.89916991,6.515502903,-196.5,-114.89999999999999,-60.3,214362
-0.019571639586410634,0.09013458451660698,1.0046756983575111,3.2653808460000002,-2.243041983,3.387451158,-189.29999999999998,-110.1,-60.9,214647
-0.01501723289020187,0.08408445487097173,0.9992806617911522,4.1732787915,-0.854492184,-1.754760735,-191.7,-112.5,-60.9,214933
-0.024741506646971934,0.08680083960982837,0.9950845222395396,4.318237287,0.686645505,-5.8364867925,-194.1,-110.1,-59.099999999999994,215217
-0.02744953225012309,0.09334485738980121,1.001318786716221,3.219604479,1.1215209915,-6.8435668665,-191.7,-110.1,-62.099999999999994,215503
-0.0258493353028065,0.11705148783800469,0.9967629780601847,2.6779174695,1.296997065,-4.043579085,-186.9,-105.3,-60.3,215788
-0.055145248645987195,0.136930485245092,1.0134276465651602,3.341674791,1.8081664965,0.5874633765,-191.7,-102.89999999999999,-59.099999999999994,216077
-0.040128015755785326,0.13038646746511914,1.0116293010430404,5.8364867925,2.853393543,2.471923818,-189.29999999999998,-107.7,-60.9,216362
-0.03483505662235352,0.09754290653167058,1.0152259920872797,7.2250365915,2.456665029,6.546020481,-186.9,-107.7,-59.699999999999996,216649
-0.029665189561792222,0.09877762686751451,1.0065939335811054,6.56127927,-0.6637573215,12.2756957505,-194.1,-112.5,-61.5,216933
-0.023141309699655343,0.1079145573527596,1.0003596691044239,3.7460326995,-4.7683715625,13.824462834,-184.5,-114.89999999999999,-60.9,217220
-0.00812407680945347,0.10853191752068156,0.9961635295528114,1.9607543865000001,-5.79833982,12.8250121545,-184.5,-105.3,-59.699999999999996,217504
-0.0017232890201870998,0.09939498703543648,0.9976022059705071,1.861572258,-3.4866332865,9.6817016205,-189.29999999999998,-107.7,-59.099999999999994,217790
-0.01501723289020187,0.10914927768860354,0.9900491547776046,1.541137689,-1.2435913035,6.896972628,-189.29999999999998,-105.3,-59.099999999999994,218078
-0.04222058099458395,0.10149401160637116,0.9988011029852536,-0.3280639635,-1.3351440375,5.8059692145,-194.1,-102.89999999999999,-59.699999999999996,218364
-0.026587887740029542,0.07062600321027288,0.9860927946289414,-4.2648315255,-2.166748038,3.3035278185,-184.5,-112.5,-60.3,218653
-0.021664204825209258,0.06568712186689715,0.9934060664188946,-6.5078735085,-1.83105468,3.20434569,-186.9,-107.7,-58.5,218939
0.004185130477597243,0.08000987776268675,0.9892099268672822,-8.08715817,-0.2670288075,8.758544886,-184.5,-107.7,-60.9,219223
0.0072624322993599215,0.11186566242746018,0.9874115813451625,-10.5056762265,1.7929077075,16.9906615515,-184.5,-105.3,-59.099999999999994,219508
0.023387493845396356,0.09260402518829484,0.98992926507613,-12.7944945765,2.5558471575,18.1045531485,-186.9,-100.5,-59.099999999999994,219794
0.04394387001477105,0.14495616742807754,1.0116293010430404,-12.451171824,3.860473617,14.9307250365,-179.7,-98.1,-57.3,220079
0.013786312161496799,0.11100135819236943,1.0172641170123486,-11.398315383,5.7449340585,12.077331493500001,-184.5,-100.5,-60.9,220364
0.02794190054160512,0.09803679466600815,1.002038124925069,-11.123657181,5.1651000765,9.399414024,-182.1,-95.7,-59.699999999999996,220649
0.0013540128015755786,0.06432892949746882,1.0420812852175998,-11.520385695,-0.213623046,-0.747680661,-184.5,-95.7,-58.5,220934
-0.010585918266863614,0.12124953697987406,1.047716101186908,-7.9879760415,-1.800537102,0.198364257,-186.9,-90.89999999999999,-59.699999999999996,221223
-0.03692762186115214,0.12976910729719718,1.03692602805419,-2.5711059465,-2.7694702035,2.182006827,-186.9,-95.7,-59.699999999999996,221509
-0.03089611029049729,0.11989134461044573,1.0202613595492147,2.716064442,-1.8844604415,0.4959106425,-186.9,-105.3,-60.9,221794
-0.024002954209748892,0.1185331522410174,1.0106701834312433,6.8588256555000005,0.6790161105,-3.158569323,-184.5,-100.5,-60.3,222079
-0.0009847365829640572,0.16656377330534633,0.9714662510490348,10.696411089,3.417968736,-2.883911121,-182.1,-100.5,-58.5,222365
-0.02708025603151157,0.044326460056797135,1.001678455820645,10.650634722,2.3727416895,-3.1967162955,-179.7,-93.3,-59.699999999999996,222649
-0.05366814377154111,0.07679960488949253,1.0549094832753867,10.2005004465,0.686645505,-6.3095092515,-186.9,-105.3,-58.5,222934
0.01243229935992122,0.10186442770712434,0.9860927946289414,11.5737914565,0.4043579085,-6.149291967,-186.9,-93.3,-58.5,223219
-0.011447562776957163,0.10186442770712434,0.99664308835871,8.590698207,-3.158569323,0.0686645505,-182.1,-98.1,-57.9,223505
-0.013540128015755786,0.1206321768119521,1.012828198057787,3.677368149,-4.8446655075,0.4196166975,-184.5,-95.7,-59.099999999999994,223793
0.006893156080748399,0.12705272255834055,1.0273348519362187,0.3738403305,-1.663208001,-0.4653930645,-186.9,-98.1,-57.9,224080
-0.004062038404726735,0.11050747005803185,1.0053950365663589,1.2435913035,4.165649397,-1.205444331,-184.5,-100.5,-60.3,224364
0.001846381093057607,0.10729719718483763,1.0176237861167725,4.302978498,5.386352517,-2.029418937,-186.9,-105.3,-57.9,224649
-0.0034465780403741997,0.11606371156932954,1.0244574991008273,6.8283080775,5.2871703885,-2.2048950105,-186.9,-95.7,-58.5,224937
-0.01464795667159035,0.10828497345351278,1.0217000359669104,5.49316404,4.379272443,-4.089355452,-177.29999999999998,-102.89999999999999,-57.9,225222
-0.020556376169374693,0.09408568959130757,1.0089917276105982,3.1661987175,1.480102533,-5.310058572,-184.5,-98.1,-57.9,225507
-0.0072624322993599215,0.09865415483393011,0.9940055149262679,1.5182495055,-2.197265616,5.432128884,-191.7,-102.89999999999999,-57.9,225792
-0.023141309699655343,0.0807507099641931,0.9827358829876514,1.0147094685,-1.4419555605,10.3836059145,-184.5,-93.3,-57.9,226079
-0.043205317577548,0.08359056673663415,0.9810574271670064,1.159667964,-1.6098022395,16.296386652,-194.1,-102.89999999999999,-58.5,226368
-0.07791728212703102,0.1549574021484134,0.9967629780601847,-1.327514643,-0.9384155235,18.0282592035,-186.9,-100.5,-57.3,226654
-0.08813392417528311,0.16989751821212495,0.9985613235823043,-7.0266723345,0.534057615,9.7885131435,-189.29999999999998,-102.89999999999999,-57.9,226941
-0.04554406696208764,0.14137547845413015,0.9982016544778803,-6.3095092515,2.1743774325,0.2059936515,-186.9,-102.89999999999999,-59.099999999999994,227226
-0.012801575578532743,0.14112853438696135,1.0160652199976021,-0.091552734,3.7612914885,-6.1264037835,-186.9,-105.3,-57.9,227512
0.0012309207287050715,0.14063464625262379,1.0294928665627623,4.2953491035,5.111694315,-8.468627895000001,-186.9,-105.3,-58.5,227796
-0.008739537173806006,0.1350784047413261,1.0173840067138233,4.1732787915,4.0512084795,-7.5607299495,-189.29999999999998,-100.5,-58.5,228082
-0.0014771048744460858,0.09223360908754168,1.0091116173120729,2.120971671,-1.998901359,-0.122070312,-186.9,-98.1,-56.699999999999996,228366
-0.021294928606597735,0.10223484380787752,0.9948447428365903,2.059936515,-3.173828112,3.982543929,-182.1,-110.1,-56.699999999999996,228653
-0.03003446578040374,0.06050129645635264,0.9736242656755785,0.427246092,-3.6087035985,6.195068334,-184.5,-107.7,-58.5,228941
-0.030649926144756277,0.05420422274354859,0.962354633736962,0.0,-2.5100707905,12.100219677,-186.9,-112.5,-58.5,229227
-0.02449532250123092,0.06778614643783183,0.9524037885145666,-2.426147451,-1.693725579,17.0669554965,-189.29999999999998,-100.5,-57.9,229512
-0.030403741999015264,0.06148907272502778,0.9579187147824002,-5.8364867925,-1.1825561475,20.278930581,-189.29999999999998,-102.89999999999999,-57.9,229797
-0.04554406696208764,0.09470304975922954,0.979139191943412,-8.0032348305,-0.442504881,19.195556562,-189.29999999999998,-107.7,-58.5,230084
-0.0103397341211226,0.09198666502037288,0.9962834192542861,-10.848998979,-1.0299682575,8.926391565,-194.1,-105.3,-58.5,230369
0.01243229935992122,0.08828250401284109,0.991607720896775,-9.826660116,-0.091552734,-1.724243157,-191.7,-100.5,-59.099999999999994,230653
0.017355982274741506,0.11458204716631683,1.0008392279103224,-6.3705444075,-0.91552734,-10.787963823,-191.7,-110.1,-56.699999999999996,230938
0.03348104382077794,0.10383998024447463,1.0106701834312433,-3.6392211765,-3.0746459835,-7.9727172525,-186.9,-107.7,-57.9,231223
0.037543082225504676,0.10532164464748735,1.0462774247692124,-0.0534057615,-2.4642944235,1.2283325145,-184.5,-107.7,-57.9,231512
0.002831117676021664,0.13631312507717003,1.020860808056588,-0.6637573215,-0.3890991195,3.387451158,-191.7,-102.89999999999999,-58.5,231797
0.00258493353028065,0.10174095567353994,1.0112696319386165,-2.59399413,-0.656127927,-6.7367553435,-189.29999999999998,-107.7,-57.9,232083
-0.0008616445100935499,0.057414495616742806,1.0085121688046996,1.98364257,1.251220698,-10.238647419,-194.1,-112.5,-57.9,232368
-0.007508616445100935,0.06050129645635264,0.9833353314950246,7.980346647,2.8457641485,-6.347656224,-184.5,-114.89999999999999,-59.099999999999994,232656
-0.02326440177252585,0.08766514384491912,0.9759021700035967,7.858276335,2.7999877815,2.822875965,-196.5,-107.7,-59.699999999999996,232940
0.011447562776957163,0.06593406593406594,0.9826159932861768,-7.339477509,-2.944946277,4.3716430485,-184.5,-98.1,-58.5,233226
0.017848350566223536,0.07877515742684282,0.9893298165687567,-6.1111449945,-2.7847289925,5.7754516365,-189.29999999999998,-117.3,-58.5,233510
-0.007139340226489414,0.10532164464748735,0.9904088238820286,-2.716064442,-0.6484985325,7.369995087,-191.7,-107.7,-58.5,233795
-0.011447562776957163,0.09729596246450178,0.9864524637333653,-2.1896362215,0.335693358,7.6217651055,-196.5,-110.1,-57.9,234083
-0.0030773018217626785,0.08889986418076305,0.9928066179115214,-3.417968736,0.946044918,7.736206023,-191.7,-110.1,-58.5,234368
-0.001600196947316593,0.1168045437708359,0.9986812132837789,-5.020141581,-0.0991821285,2.2659301665,-196.5,-114.89999999999999,-57.9,234653
0.012555391432791729,0.12112606494628966,0.9934060664188946,-5.462646462,-1.2588500925,-8.193969693,-191.7,-105.3,-58.5,234938
0.01464795667159035,0.09741943449808618,0.9863325740318907,-0.244140624,0.7095336885,-14.724731385,-196.5,-114.89999999999999,-59.099999999999994,235227
0.022279665189561794,0.09630818619582665,0.9890900371658075,6.9046020225,2.349853506,-13.793945256,-194.1,-107.7,-57.9,235514
0.021541112752338748,0.04617854056056303,0.9980817647764058,5.3634643335,-1.4877319275,-7.3318481145,-186.9,-112.5,-59.699999999999996,235798
0.009970457902511078,0.04568465242622546,0.9888502577628582,0.442504881,-3.9596557455,-1.9302368085,-194.1,-112.5,-59.699999999999996,236084
0.028311176760216644,0.11742190393875787,1.0637813211845102,-7.2250365915,-3.9215087730000002,-2.4490356345,-189.29999999999998,-112.5,-57.3,236370
-0.00603151157065485,0.12569453018891222,1.0068337129840548,-24.6658324185,1.892089836,0.183105468,-194.1,-112.5,-58.5,236660
-0.010832102412604629,0.043462155821706386,0.9997602205970507,-28.6636351365,2.777099598,5.905151343,-198.9,-112.5,-59.699999999999996,236945
-0.025972427375677006,0.09803679466600815,1.0744515046157534,-21.499633701,5.279540994,4.592895489,-194.1,-117.3,-60.9,237231
0.1171836533727228,0.1926163723916533,0.9749430523917996,-16.265869074,6.5689086645,-1.1367797805,-191.7,-112.5,-60.3,237516
-0.041851304775972424,-0.032473144832695394,1.041721616113176,-12.573242136,6.5307616920000005,-3.7155151215,-196.5,-112.5,-59.099999999999994,237803
0.0931806991629739,0.11223607852821336,0.989569595971706,-12.0468139155,0.9231567345,4.4937133605,-196.5,-105.3,-59.099999999999994,238087
0.06634662727720335,0.06963822694159773,0.9773408464212924,-15.3274535505,-4.2953491035,6.912231417,-191.7,-105.3,-62.699999999999996,238373
0.08050221565731167,0.08408445487097173,0.984534228509771,-15.151977477,-6.134033178,9.9563598225,-194.1,-114.89999999999999,-62.699999999999996,238657
0.07656326932545544,0.10223484380787752,1.0059944850737321,-12.374877879,-6.439208958,9.719848593,-194.1,-105.3,-59.699999999999996,238944
0.0013540128015755786,0.11729843190517347,1.0365663589497662,-8.1100463535,-4.928588847,4.867553691,-191.7,-107.7,-60.3,239233
-0.014401772525849335,0.13149771576737868,1.025176837309675,-2.426147451,-1.3504028265,-0.5722045875,-191.7,-102.89999999999999,-61.5,239519
0.007016248153618907,0.14643783183109027,1.0127083083563122,2.2506713775,1.907348625,-7.598876922,-198.9,-119.69999999999999,-60.3,239803
-0.05379123584441162,0.026546487220644524,1.0081524997002758,6.0653686275,3.81469725,-15.8767699545,-191.7,-112.5,-60.3,240089
-0.03003446578040374,0.019385109272749723,1.028893418055389,9.597778281,6.0043334715,-19.4015502135,-194.1,-114.89999999999999,-60.9,240375
0.027818808468734614,0.02605259908630695,1.0230188226831316,8.941650354,3.890991195,-17.379760671,-196.5,-114.89999999999999,-62.099999999999994,240660
0.0482520925652388,-0.010742066921842203,1.0157055508931783,6.3247680405,1.5487670835,-11.3143920435,-189.29999999999998,-114.89999999999999,-59.699999999999996,240945
0.06757754800590841,0.06519323373255957,0.9760220597050714,3.1661987175,-2.0523071205,-5.752563453,-196.5,-126.89999999999999,-61.5,241231
0.023141309699655343,0.08865292011359427,1.0165447788035007,0.3738403305,-4.9209594525,-3.646850571,-182.1,-122.1,-60.3,241515
0.004431314623338257,0.09655513026299543,0.9979618750749311,-0.8316040005,-6.0043334715,-0.778198239,-194.1,-119.69999999999999,-60.3,241805
-0.027572624322993598,0.10989010989010989,1.0011988970147465,-0.3280639635,-4.913330058,1.403808588,-194.1,-119.69999999999999,-59.099999999999994,242090
-0.04788281634662728,0.10383998024447463,1.001678455820645,0.885009762,-2.166748038,2.365112295,-191.7,-124.5,-62.099999999999994,242376
-0.025480059084194977,0.08964069638226942,1.00671382328258,2.655029286,1.052856441,5.264282205,-196.5,-119.69999999999999,-62.699999999999996,242662
0.001600196947316593,0.06951475490801333,1.0040762498501379,2.944946277,1.1367797805,10.787963823,-194.1,-126.89999999999999,-60.3,242948
-0.0006154603643525357,0.06988517100876651,1.0098309555209208,-0.7247924775,-3.417968736,11.260986282,-196.5,-119.69999999999999,-61.5,243233
-0.007385524372230428,0.09062847265094456,1.0040762498501379,-2.9067993045,-7.537841766,8.193969693,-191.7,-122.1,-61.5,243520
-0.021294928606597735,0.10544511668107173,0.9982016544778803,-3.1051635615,-7.8048705735,2.8305053595,-196.5,-126.89999999999999,-60.3,243804
-0.025603151157065487,0.09383874552413879,1.00671382328258,-1.2130737255,-4.0969848465,-1.449584955,-198.9,-129.29999999999998,-60.3,244090
-0.016494337764647957,0.09099888875169775,0.9965231986572354,1.8997192305,0.198364257,-6.1416625725,-198.9,-122.1,-60.9,244379
-0.0066469719350073855,0.062106432892949745,0.986212684330416,1.5487670835,2.212524405,-10.696411089,-196.5,-126.89999999999999,-60.9,244665
-0.007877892663712457,0.03432522533646129,0.9847740079127203,-1.022338863,3.173828112,-9.872436483,-191.7,-131.7,-62.099999999999994,244950
0.0011078286558345643,0.038523274478330656,0.9896894856731807,-4.3869018375,3.1356811395,-4.8904418745000005,-196.5,-124.5,-61.5,245235
-0.0004923682914820286,0.03938757871342141,1.0123486392518883,-11.718749952,1.419067377,4.379272443,-196.5,-126.89999999999999,-59.099999999999994,245521
0.0066469719350073855,0.08680083960982837,1.0051552571634097,-12.619018503,1.4877319275,9.124755822000001,-194.1,-122.1,-61.5,245807
0.017232890201871,0.10383998024447463,0.9913679414938257,-11.3754271995,2.2048950105,12.3214721175,-196.5,-131.7,-60.9,246091
-0.014278680452978828,0.08235584640079022,1.0234983814890302,-9.9411010335,2.0675659095,8.8729858035,-196.5,-136.5,-61.5,246376
-0.011693746922698178,0.0682800345721694,1.0189425728329937,-7.9116820965,2.304077139,4.257202131,-196.5,-129.29999999999998,-61.5,246661
0.0023387493845396356,0.03654772194098037,1.0148663229828558,-6.469726536,2.227783194,5.508422829,-196.5,-129.29999999999998,-59.699999999999996,246951
-0.01772525849335303,0.003580688973947401,1.0341685649202734,-6.0348510495,1.235961909,9.1781615835,-196.5,-134.1,-62.099999999999994,247236
0.006400787789266372,0.01061859488825781,1.0388442632777843,-5.64575193,-0.4043579085,7.431030243,-196.5,-129.29999999999998,-62.699999999999996,247521
0.009108813392417528,0.0665514261019879,1.0113895216400912,-4.287719709,-0.4959106425,0.396728514,-201.29999999999998,-126.89999999999999,-60.9,247806
0.028188084687346134,0.04284479565378442,1.029612756264237,0.869750973,2.5100707905,1.3961791935,-196.5,-131.7,-62.099999999999994,248094
0.03003446578040374,0.07037905914310409,1.0101906246253447,1.5182495055,-0.885009762,5.8212280035,-196.5,-131.7,-62.699999999999996,248379
0.03840472673559823,0.09211013705395728,0.9883706989569596,0.869750973,-4.8904418745000005,10.1547240795,-203.7,-126.89999999999999,-62.699999999999996,248664
0.0033234859675036928,0.047042844795653786,1.0046756983575111,0.0991821285,-7.32421872,10.330200153,-203.7,-131.7,-62.699999999999996,248949
-0.030280649926144758,0.08322015063588098,1.0197818007433161,0.5569457985,-6.469726536,4.318237287,-194.1,-131.7,-62.099999999999994,249234
-0.023879862136878385,0.055315471045808126,0.9908883826879271,3.2577514515,-1.3351440375,-6.0806274165,-198.9,-134.1,-63.3,249525
-0.02375677006400788,0.027410791455735276,0.9948447428365903,5.7296752695,5.4397582785,-12.9165648885,-194.1,-136.5,-62.099999999999994,249814
-0.021048744460856722,0.01889122113841215,0.9997602205970507,6.25610349,9.780883749000001,-13.3590697695,-196.5,-131.7,-62.699999999999996,250099
0.0448055145248646,0.037288554142486725,1.0002397794029494,1.7623901295,5.859374976,-11.6958617685,-198.9,-131.7,-62.699999999999996,250385
0.046282619399310686,0.040745771082849734,1.0034768013427646,-2.8915405155,0.5416870095,-4.9362182415,-203.7,-136.5,-61.5,250670
0.03508124076809453,0.0629707371280405,1.0014386764176957,-6.6452026095,-4.8141479295,0.7247924775,-191.7,-141.29999999999998,-62.699999999999996,250955
0.017971442639094042,0.056179775280898875,1.0041961395516126,-9.063720666,-8.193969693,5.477905251,-196.5,-131.7,-62.099999999999994,251240
-0.00775480059084195,0.054945054945054944,1.00335691164129,-9.246826134,-8.1100463535,12.1536254385,-198.9,-136.5,-62.099999999999994,251525
-0.01883308714918759,0.048154093097913325,1.0058745953722574,-7.7896117845,-5.477905251,18.356323167,-201.29999999999998,-138.9,-62.699999999999996,251814
-0.03643525356967011,0.03444869737004568,1.0061143747752068,-5.6533813245,-1.9760131755,18.981933516,-203.7,-134.1,-63.3,252105
-0.05625307730182176,0.03333744906778615,1.0088718379091237,-4.2037963695,0.686645505,17.562866139,-194.1,-131.7,-62.099999999999994,252389
-0.045051698670605614,0.07124336337819484,1.00671382328258,-3.372192369,2.731323231,16.967773368,-203.7,-138.9,-63.9,252674
-0.01624815361890694,0.0592665761205087,1.0062342644766815,-4.699707012,0.5569457985,11.154174759,-203.7,-138.9,-62.699999999999996,252959
-0.006277695716395864,0.03580688973947401,0.9979618750749311,-4.211425764,-0.1907348625,3.7612914885,-198.9,-138.9,-60.9,253245
-0.006770064007877893,0.015434004198049142,0.9852535667186189,-3.9138793785,0.320434569,-3.1356811395,-201.29999999999998,-134.1,-62.099999999999994,253530
-0.013293943870014771,0.01901469317199654,1.0119889701474643,-4.9057006635,1.388549799,-8.361816372,-198.9,-131.7,-62.099999999999994,253816
-0.018709995076317085,0.036177305840227186,0.9978419853734565,-5.0430297645,3.0136108275,-11.856079053,-203.7,-136.5,-63.3,254101
-0.014032496307237814,0.03148536856402025,0.9898093753746553,-4.9972533975,5.355834939,-10.894775346,-194.1,-141.29999999999998,-65.7,254386
-0.026834071885770555,0.042227435485862455,0.9850137873156696,-6.5231322975,6.607055637,-6.072998022,-203.7,-131.7,-63.9,254674
-0.03581979320531758,0.07445363625138907,1.0106701834312433,-9.7732543545,6.149291967,0.1296997065,-198.9,-131.7,-65.7,254960
0.031634662727720336,0.09865415483393011,1.0306917635775088,-2.5558471575,11.8942260255,11.245727493,-203.7,-136.5,-64.5,255244
-0.014278680452978828,0.0971724904309174,1.0285337489509652,0.30517578,10.696411089,11.581420851,-201.29999999999998,-124.5,-65.7,255529
-0.019940915805022157,0.06939128287442894,1.0315309914878312,-0.1754760735,4.684448223,9.689331015,-198.9,-129.29999999999998,-65.1,255815
-0.013540128015755786,0.05185825410544512,0.9989209926867282,-0.0076293945,-0.1449584955,10.452270465,-206.1,-134.1,-65.1,256101
-0.06142294436238306,0.0342017533028769,1.0185829037285696,0.106811523,-2.151489249,12.3825072735,-194.1,-126.89999999999999,-64.5,256384
-0.04579025110782865,0.07149030744536362,1.0124685289533628,0.137329101,-3.067016589,11.7721557135,-201.29999999999998,-131.7,-65.1,256670
-0.0189561792220581,0.038646746511915055,0.9953243016424889,0.0839233395,-2.2964477445,8.4762572895,-201.29999999999998,-124.5,-63.9,256954
-0.06216149679960611,0.05469811087788616,1.012828198057787,-0.1296997065,-0.1602172845,4.623413067,-203.7,-136.5,-66.3,257244
-0.051698670605613,0.0556858871465613,1.0023977940294928,-0.1296997065,2.456665029,-0.8163452115000001,-201.29999999999998,-126.89999999999999,-64.5,257530
0.0017232890201870998,0.06222990492653414,1.024217719697878,0.2365112295,3.2882690295,-10.3530883365,-203.7,-136.5,-65.1,257817
0.009724273756770064,0.11063094209161625,1.0184630140270952,0.4806518535,0.869750973,-11.093139603000001,-201.29999999999998,-136.5,-66.3,258102
-0.008370260955194485,0.06766267440424743,1.0131878671622108,0.8468627895,-0.4806518535,-12.115478466,-203.7,-131.7,-66.3,258388
-0.007016248153618907,0.0377824422768243,1.0094712864164967,2.807617176,1.235961909,-10.787963823,-203.7,-136.5,-65.7,258673
-0.026095519448547513,0.016298308433139893,1.0019182352235942,5.6991576915,5.0430297645,-4.089355452,-201.29999999999998,-138.9,-65.7,258959
-0.03729689807976366,0.018767749104827758,0.9959237501498621,5.554199196,6.25610349,9.216308556,-198.9,-141.29999999999998,-65.7,259243
-0.029172821270310192,0.04012841091492777,0.9955640810454381,2.182006827,3.936767562,19.9356078285,-203.7,-143.7,-67.5,259529
-0.03975873953717381,0.033954809235708115,0.9852535667186189,-2.853393543,0.0534057615,22.1939086005,-198.9,-138.9,-66.89999999999999,259817
0.0241260462826194,0.06420545746388442,1.024217719697878,-6.317138646,-6.881713839,27.0156859245,-201.29999999999998,-138.9,-66.89999999999999,260103
-0.07557853274249138,0.14841338436844054,1.0019182352235942,-0.076293945,-0.9078979455,14.5645141005,-208.5,-134.1,-67.5,260390
-0.07902511078286559,0.16076058772687987,1.0131878671622108,0.442504881,0.961303707,-4.88281248,-208.5,-143.7,-66.3,260676
-0.03409650418513048,0.03210272873194221,1.0187027934300443,2.304077139,3.5171508645,-18.981933516,-206.1,-134.1,-65.1,260961
-0.019940915805022157,0.03346092110137054,1.0064740438796307,5.722045875,6.8435668665,-23.925781152,-201.29999999999998,-136.5,-67.5,261247
-0.016125061546036434,0.030621064328929498,0.9998801102985253,5.95092771,6.759643527,-25.909423722,-203.7,-146.1,-66.3,261532
-0.0002461841457410143,0.021484133843684406,0.9992806617911522,4.5852660945,5.1193237095,-23.864745996,-198.9,-146.1,-67.5,261817
-0.007139340226489414,0.04519076429188789,0.9930463973144706,2.5863647355,2.990722644,-17.9977416255,-203.7,-146.1,-68.7,262102
-0.025110782865583457,0.05790838375108038,1.0324901090996284,0.0991821285,0.778198239,-8.6746215465,-206.1,-141.29999999999998,-65.7,262392
