ax,ay,az,gx,gy,gz,mx,my,mz,t_stamp
0.05993129677340204,0.0035731887629374074,0.9866698405141633,0.473022459,-0.2212524405,0.183105468,134.7,209.1,-43.5,11222
0.0580910317752423,-0.0001232134056185313,0.9882170911687693,0.2212524405,-0.091552734,0.183105468,137.1,211.5,-42.3,11448
0.05931787510734879,-0.0003696402168555939,0.9863722923113545,-0.259399413,-0.122070312,0.0991821285,129.9,221.1,-42.9,11674
0.06066740277266593,0.0018482010842779694,0.9861937633896691,-0.061035156,0.0381469725,-0.061035156,137.1,216.29999999999998,-41.1,11900
0.0620782726045884,0.0007392804337111878,0.9869673887169722,0.0381469725,-0.0686645505,0.0,132.29999999999998,209.1,-41.1,12125
0.06367316893632684,0.0023410547067520947,0.9869078790764104,0.0686645505,-0.061035156,-0.0076293945,132.29999999999998,216.29999999999998,-42.3,12351
0.06281437860385229,0.0032651552488910792,0.985955724827422,0.076293945,-0.061035156,0.030517578,132.29999999999998,211.5,-42.3,12630
0.06293706293706294,0.0033883686545096107,0.9828612235182099,0.076293945,-0.0381469725,0.0686645505,134.7,211.5,-40.5,12916
0.06023800760642866,0.0005544603252833908,0.9848250416567484,0.0991821285,0.045776367,0.0686645505,137.1,211.5,-40.5,13202
0.057845663108821006,-0.0009857072449482504,0.9878600333253987,0.0686645505,-0.0228881835,-0.0076293945,134.7,216.29999999999998,-42.3,13488
0.05894982210771684,-0.0011089206505667817,0.987800523684837,-0.0228881835,-0.061035156,0.0381469725,132.29999999999998,216.29999999999998,-41.1,13773
0.06005398110661268,-0.002649088220798423,0.9848845512973101,-0.0381469725,0.030517578,-0.015258789,134.7,216.29999999999998,-42.9,14060
0.06220095693779904,0.002957121734844751,0.9862532730302309,0.1449584955,-0.091552734,0.030517578,134.7,218.7,-42.9,14346
0.06275303643724696,0.0017249876786594382,0.9854796477029278,0.061035156,-0.122070312,0.0228881835,129.9,218.7,-40.5,14632
0.06079008710587658,0.0009857072449482504,0.9837538681266366,-0.045776367,-0.0381469725,0.061035156,134.7,216.29999999999998,-42.3,14918
0.06232364127100969,0.0032035485460818135,0.98387288740776,-0.030517578,-0.0839233395,0.137329101,137.1,216.29999999999998,-41.699999999999996,15205
0.060851429272481904,0.0019098077870872351,0.9858962151868603,0.0534057615,0.0076293945,0.0228881835,132.29999999999998,213.9,-39.9,15491
0.060176665439823335,-0.0021562345983242976,0.9886336586527017,0.0381469725,-0.045776367,0.0076293945,127.5,213.9,-40.5,15778
0.06005398110661268,-0.0014785608674223755,0.987800523684837,-0.045776367,-0.061035156,0.045776367,127.5,213.9,-42.3,16063
0.060360691939639305,0.0018482010842779694,0.9854796477029278,-0.091552734,-0.091552734,-0.0534057615,139.5,218.7,-42.3,16349
0.06189424610477242,0.004004435682602267,0.9855391573434896,-0.0381469725,-0.106811523,0.0534057615,129.9,221.1,-41.1,16635
0.06042203410624463,0.005298176441596846,0.9860747441085456,0.015258789,-0.0534057615,-0.030517578,132.29999999999998,221.1,-40.5,16921
0.05962458594037542,0.0028955150320354854,0.9864913115924779,-0.0076293945,-0.106811523,0.0076293945,134.7,218.7,-41.699999999999996,17206
0.05931787510734879,-0.0011089206505667817,0.9860152344679838,0.0686645505,-0.0534057615,0.0076293945,134.7,213.9,-41.699999999999996,17493
0.059379217273954114,-0.002279448003942829,0.9858962151868603,0.1144409175,0.0534057615,0.030517578,137.1,225.9,-42.3,17779
0.059501901607164766,-0.002094627895515032,0.9880980718876458,0.076293945,-0.0381469725,0.137329101,129.9,216.29999999999998,-42.3,18065
0.06072874493927125,0.0016633809758501725,0.9854201380623661,0.0228881835,-0.091552734,-0.015258789,132.29999999999998,213.9,-41.1,18349
0.06189424610477242,0.0020330211927057666,0.9845870030945013,-0.0381469725,-0.0228881835,-0.0381469725,137.1,206.7,-41.1,18635
0.06269169427064164,0.0037580088713652046,0.984408474172816,-0.030517578,0.0,-0.1296997065,134.7,223.5,-40.5,18920
0.06201693043798307,0.0016017742730409068,0.9861937633896691,0.045776367,-0.0076293945,0.1144409175,132.29999999999998,213.9,-41.699999999999996,19205
0.06005398110661268,0.0019098077870872351,0.9873839562009046,-0.045776367,0.0228881835,0.0076293945,129.9,218.7,-41.1,19490
0.059501901607164766,-0.0001232134056185313,0.9860152344679838,0.0381469725,-0.045776367,-0.0228881835,137.1,206.7,-42.3,19778
0.06103545577229788,-0.0004928536224741252,0.9862532730302309,-0.0381469725,0.030517578,-0.0381469725,137.1,206.7,-41.699999999999996,20063
0.06121948227211385,-0.0006160670280926564,0.9854201380623661,0.0,-0.0076293945,-0.045776367,139.5,218.7,-41.1,20350
0.05888847994111152,0.0025258748151798915,0.9847655320161867,0.0076293945,-0.1296997065,0.0686645505,129.9,206.7,-41.699999999999996,20635
0.06042203410624463,0.002094627895515032,0.9858962151868603,0.106811523,-0.0076293945,0.0534057615,137.1,209.1,-42.3,20922
0.062139614771193716,0.0018482010842779694,0.9864913115924779,-0.0534057615,0.061035156,0.0686645505,141.9,218.7,-41.1,21206
0.0620782726045884,0.002094627895515032,0.98387288740776,0.0,-0.0839233395,0.076293945,134.7,221.1,-41.699999999999996,21492
0.06312108943687891,0.0007392804337111878,0.988812187574387,-0.015258789,0.076293945,0.0381469725,134.7,213.9,-42.3,21777
0.06054471843945528,0.0041276490882207984,0.9876219947631516,-0.015258789,0.0,0.0381469725,137.1,216.29999999999998,-41.699999999999996,22062
0.058213716108452954,0.0009241005421389847,0.9869078790764104,0.15258789,-0.0839233395,0.137329101,137.1,213.9,-42.3,22347
0.05888847994111152,-0.0020330211927057666,0.9855986669840514,0.015258789,-0.045776367,-0.0839233395,137.1,216.29999999999998,-42.3,22633
0.06023800760642866,-6.160670280926565e-05,0.9855986669840514,0.0,-0.030517578,0.015258789,134.7,211.5,-40.5,22919
0.06250766777082567,0.0003080335140463282,0.9866698405141633,0.0228881835,-0.0076293945,0.0228881835,139.5,216.29999999999998,-41.1,23206
0.06072874493927125,0.0002464268112370626,0.9828612235182099,-0.015258789,-0.030517578,0.0381469725,139.5,213.9,-41.1,23491
0.0620782726045884,-0.0008624938393297191,0.9841704356105689,0.0076293945,-0.045776367,0.0686645505,122.69999999999999,225.9,-41.699999999999996,23777
0.0615875352717458,0.003634795465746673,0.9853011187812426,0.045776367,0.0381469725,0.030517578,132.29999999999998,218.7,-40.5,24062
0.06023800760642866,0.0016017742730409068,0.9847655320161867,0.076293945,-0.015258789,-0.030517578,127.5,213.9,-43.5,24348
0.061955588271377746,0.0025258748151798915,0.9869673887169722,0.106811523,0.0534057615,0.030517578,134.7,213.9,-43.5,24633
0.05986995460679671,0.0021562345983242976,0.9854796477029278,0.045776367,0.061035156,0.045776367,139.5,213.9,-40.5,24918
0.0583364004416636,0.00018482010842779694,0.9874434658414664,0.0839233395,-0.0534057615,0.061035156,134.7,216.29999999999998,-41.1,25204
0.05747761010918906,-0.0004928536224741252,0.9876815044037134,0.1602172845,0.0076293945,-0.015258789,137.1,216.29999999999998,-42.9,25490
0.060974113605692555,-0.00043124691966485955,0.9852416091406808,0.045776367,0.015258789,-0.0076293945,132.29999999999998,211.5,-40.5,25776
0.06011532327321801,0.0017865943814687037,0.9851225898595573,0.015258789,-0.0076293945,0.0,134.7,216.29999999999998,-39.3,26062
0.06140350877192982,0.0014785608674223755,0.985955724827422,-0.0228881835,-0.045776367,0.015258789,134.7,218.7,-42.3,26347
0.06152619310514047,0.002587481517989157,0.9850035705784337,-0.0839233395,-0.0076293945,0.0534057615,134.7,218.7,-40.5,26632
0.0613421666053245,0.0035731887629374074,0.9860747441085456,0.061035156,0.0228881835,0.0228881835,134.7,213.9,-40.5,26917
0.06079008710587658,0.0005544603252833908,0.9860747441085456,0.061035156,0.0228881835,-0.030517578,137.1,221.1,-41.1,27202
0.06103545577229788,-0.0003696402168555939,0.9848250416567484,0.137329101,0.106811523,0.0076293945,134.7,218.7,-41.1,27487
0.060851429272481904,-0.00043124691966485955,0.9866103308736015,0.0991821285,0.0381469725,0.0686645505,134.7,213.9,-42.9,27775
0.061832903938167094,-0.0011089206505667817,0.9864913115924779,0.015258789,-0.076293945,0.0076293945,137.1,216.29999999999998,-39.9,28060
0.06201693043798307,0.0020330211927057666,0.9857771959057368,-0.0991821285,-0.045776367,-0.061035156,132.29999999999998,216.29999999999998,-40.5,28346
0.06263035210403632,0.004312469196648595,0.9846465127350631,0.045776367,-0.045776367,-0.0228881835,134.7,218.7,-42.9,28633
0.06275303643724696,0.003881222276983736,0.9853606284218044,0.0991821285,-0.045776367,0.015258789,132.29999999999998,216.29999999999998,-41.1,28919
0.06054471843945528,0.0001232134056185313,0.9861342537491073,-0.0686645505,-0.030517578,0.0076293945,132.29999999999998,216.29999999999998,-42.3,29204
0.05925653294074347,-0.0025258748151798915,0.9870268983575339,0.0534057615,0.030517578,0.0534057615,137.1,221.1,-41.699999999999996,29491
0.06072874493927125,-0.001971414489896501,0.9860747441085456,0.030517578,0.030517578,-0.015258789,134.7,211.5,-41.699999999999996,29776
0.057845663108821006,0.0015401675702316413,0.9835158295643894,0.0686645505,-0.0228881835,-0.015258789,132.29999999999998,216.29999999999998,-41.699999999999996,30061
0.058397742608268924,-0.0003080335140463282,0.9877410140442752,-0.0076293945,-0.015258789,-0.030517578,129.9,211.5,-41.699999999999996,30349
0.061832903938167094,0.001047313947757516,0.9865508212330397,-0.076293945,-0.0228881835,0.030517578,137.1,216.29999999999998,-42.3,30635
0.06269169427064164,0.0046821094135041895,0.9858962151868603,0.061035156,-0.076293945,-0.015258789,134.7,218.7,-41.699999999999996,30922
0.06379585326953748,0.0038196155741744703,0.9873244465603428,0.030517578,0.045776367,-0.0228881835,134.7,216.29999999999998,-41.699999999999996,31208
0.061955588271377746,0.0014785608674223755,0.9857771959057368,0.030517578,-0.030517578,0.061035156,134.7,213.9,-43.5,31493
0.05962458594037542,-0.0009857072449482504,0.9891097357771959,-0.015258789,-0.061035156,0.045776367,134.7,216.29999999999998,-39.9,31779
0.059379217273954114,-0.0013553474618038443,0.9867888597952869,0.015258789,-0.0991821285,0.0,134.7,216.29999999999998,-41.1,32064
0.059685928106980736,-0.0013553474618038443,0.9855986669840514,0.0076293945,0.0,0.015258789,132.29999999999998,213.9,-40.5,32349
0.06201693043798307,0.0006160670280926564,0.9877410140442752,0.1449584955,0.0076293945,-0.030517578,134.7,218.7,-41.1,32634
0.06416390626916943,0.002957121734844751,0.9904784575101166,0.045776367,-0.0076293945,-0.0381469725,134.7,218.7,-41.699999999999996,32922
0.06299840510366826,0.0028955150320354854,0.987264936919781,-0.0381469725,0.061035156,0.0228881835,137.1,216.29999999999998,-40.5,33206
0.06342780026990553,0.0024026614095613605,0.9861937633896691,0.0534057615,-0.061035156,0.045776367,137.1,211.5,-41.1,33494
0.06348914243651085,0.002649088220798423,0.987502975482028,-0.0381469725,0.0076293945,0.0381469725,134.7,218.7,-41.699999999999996,33778
0.06054471843945528,-0.0017249876786594382,0.9872054272792192,0.030517578,-0.0076293945,0.0076293945,129.9,218.7,-41.1,34065
0.0588271377745062,-0.0014785608674223755,0.9887526779338253,-0.045776367,-0.030517578,0.0076293945,134.7,216.29999999999998,-41.1,34349
0.0588271377745062,0.0001232134056185313,0.989347774339443,0.061035156,-0.061035156,0.076293945,132.29999999999998,211.5,-41.1,34635
0.061832903938167094,0.0021562345983242976,0.9862532730302309,0.030517578,-0.061035156,-0.015258789,132.29999999999998,211.5,-41.699999999999996,34920
0.06269169427064164,0.0031419418432725482,0.9882170911687693,0.0076293945,-0.015258789,-0.0228881835,132.29999999999998,221.1,-42.9,35206
0.062139614771193716,0.003634795465746673,0.988038562247084,0.0381469725,0.0076293945,0.0534057615,132.29999999999998,213.9,-40.5,35493
0.061955588271377746,0.0030803351404632825,0.9866103308736015,0.0381469725,-0.0686645505,0.091552734,134.7,218.7,-42.3,35779
0.06250766777082567,0.0008008871365204534,0.9857771959057368,0.061035156,-0.045776367,0.091552734,132.29999999999998,221.1,-41.1,36064
0.059379217273954114,0.0003080335140463282,0.9866103308736015,0.0686645505,-0.0686645505,-0.0381469725,137.1,216.29999999999998,-43.5,36358
0.060483376272849956,0.00043124691966485955,0.9864318019519163,0.0,-0.030517578,0.0,139.5,213.9,-42.3,36651
0.06201693043798307,0.0014785608674223755,0.9858367055462985,-0.0839233395,0.0228881835,0.0076293945,134.7,213.9,-42.3,36944
0.06140350877192982,0.0014785608674223755,0.9877410140442752,-0.061035156,-0.0534057615,0.015258789,129.9,216.29999999999998,-39.9,37239
0.06226229910440437,0.0027723016264169544,0.9866698405141633,0.030517578,-0.061035156,0.045776367,129.9,211.5,-41.699999999999996,37533
0.06152619310514047,0.0033883686545096107,0.985717686265175,0.122070312,-0.0686645505,0.0534057615,134.7,218.7,-40.5,37826
0.06128082443871918,-6.160670280926565e-05,0.9863722923113545,0.0686645505,0.045776367,0.091552734,132.29999999999998,216.29999999999998,-42.3,38120
0.060299349773033986,0.0011705273533760474,0.9877410140442752,-0.0228881835,-0.0381469725,0.015258789,137.1,213.9,-41.699999999999996,38413
0.06146485093853515,-0.0018482010842779694,0.9857771959057368,0.0,-0.0686645505,0.0076293945,137.1,216.29999999999998,-40.5,38708
0.060851429272481904,-0.0006776737309019222,0.9866103308736015,-0.030517578,-0.106811523,0.0381469725,141.9,213.9,-41.699999999999996,39001
0.060851429272481904,0.0002464268112370626,0.9879790526065223,0.0686645505,-0.061035156,-0.0228881835,129.9,216.29999999999998,-41.699999999999996,39294
0.06226229910440437,0.0025258748151798915,0.9882766008093311,0.137329101,0.0,-0.0381469725,132.29999999999998,213.9,-41.1,39587
0.06091277143908723,0.0016017742730409068,0.9889312068555106,0.122070312,0.015258789,-0.0076293945,134.7,211.5,-41.1,39881
0.0615875352717458,0.0016633809758501725,0.9882766008093311,0.061035156,0.0534057615,-0.015258789,132.29999999999998,216.29999999999998,-42.3,40174
0.0610967979389032,0.0013553474618038443,0.9870864079980957,0.030517578,-0.045776367,0.091552734,141.9,223.5,-42.3,40467
0.05956324377377009,-0.0004928536224741252,0.987800523684837,0.1296997065,-0.045776367,0.030517578,129.9,218.7,-41.699999999999996,40760
0.0588271377745062,-0.00018482010842779694,0.9853606284218044,0.0228881835,-0.0228881835,0.045776367,134.7,213.9,-39.3,41054
0.05962458594037542,0.0004928536224741252,0.9869673887169722,0.0,-0.030517578,-0.0991821285,134.7,213.9,-42.9,41347
0.06023800760642866,0.0016633809758501725,0.987502975482028,-0.0228881835,0.0076293945,0.015258789,132.29999999999998,218.7,-40.5,41641
0.060851429272481904,0.0025258748151798915,0.9861937633896691,0.015258789,-0.091552734,0.015258789,144.29999999999998,213.9,-42.3,41938
0.06103545577229788,0.0016017742730409068,0.9855986669840514,0.030517578,-0.030517578,-0.015258789,132.29999999999998,218.7,-41.1,42232
0.06152619310514047,0.0013553474618038443,0.9884551297310165,-0.015258789,-0.061035156,-0.0534057615,139.5,216.29999999999998,-39.9,42524
0.06201693043798307,0.0016017742730409068,0.9888716972149488,0.0534057615,0.0,-0.015258789,137.1,221.1,-39.3,42819
0.05986995460679671,0.0007392804337111878,0.9879790526065223,0.0,0.0,-0.0228881835,139.5,218.7,-42.3,43111
0.06079008710587658,-0.0003080335140463282,0.9876815044037134,0.0686645505,-0.030517578,0.015258789,127.5,211.5,-41.699999999999996,43404
0.05974727027358606,-0.0008624938393297191,0.9872054272792192,0.0686645505,-0.0076293945,0.030517578,139.5,213.9,-40.5,43697
0.061158140105508525,0.0012937407589945786,0.9844679838133777,0.137329101,0.015258789,0.015258789,139.5,213.9,-42.9,43993
0.060974113605692555,0.0019098077870872351,0.9875624851225898,0.061035156,0.0381469725,-0.045776367,132.29999999999998,216.29999999999998,-42.9,44286
0.06232364127100969,0.0008624938393297191,0.9865508212330397,0.015258789,-0.0381469725,-0.0076293945,137.1,211.5,-41.1,44580
0.06121948227211385,0.0003696402168555939,0.9867888597952869,0.0076293945,-0.061035156,0.030517578,137.1,213.9,-39.9,44874
0.06324377377008956,0.0011089206505667817,0.9870864079980957,-0.030517578,-0.0076293945,0.076293945,137.1,211.5,-40.5,45167
0.062139614771193716,0.0009241005421389847,0.9881575815282075,0.0686645505,-0.0381469725,0.061035156,132.29999999999998,216.29999999999998,-40.5,45459
0.060299349773033986,0.0013553474618038443,0.9866103308736015,-0.076293945,-0.0076293945,0.030517578,137.1,211.5,-42.3,45753
0.060360691939639305,0.00043124691966485955,0.9861937633896691,0.0,-0.0686645505,-0.045776367,132.29999999999998,211.5,-44.1,46047
0.06232364127100969,0.0001232134056185313,0.9869673887169722,0.0534057615,-0.1296997065,-0.0381469725,132.29999999999998,221.1,-42.3,46344
0.06232364127100969,0.0015401675702316413,0.9866698405141633,-0.030517578,-0.0686645505,0.015258789,134.7,221.1,-41.1,46638
0.059501901607164766,0.0027106949236076886,0.987264936919781,-0.0076293945,-0.0228881835,0.0,134.7,211.5,-41.699999999999996,46932
0.060974113605692555,0.0011089206505667817,0.9898238514639371,0.015258789,-0.0381469725,-0.0991821285,134.7,218.7,-42.3,47225
0.060483376272849956,-0.0001232134056185313,0.9872054272792192,0.0991821285,-0.076293945,0.0534057615,134.7,216.29999999999998,-41.699999999999996,47518
0.060176665439823335,0.0009241005421389847,0.9885146393715782,0.045776367,-0.0839233395,0.061035156,137.1,211.5,-42.3,47811
0.0585817691080849,0.0011705273533760474,0.9870268983575339,0.015258789,-0.091552734,0.045776367,137.1,213.9,-41.699999999999996,48107
0.06152619310514047,0.00043124691966485955,0.9858962151868603,-0.0076293945,-0.0534057615,0.0534057615,132.29999999999998,216.29999999999998,-39.3,48400
0.06072874493927125,0.002957121734844751,0.9869078790764104,0.061035156,-0.061035156,0.0076293945,134.7,211.5,-40.5,48693
0.0610967979389032,0.0027106949236076886,0.9874434658414664,0.1754760735,0.0,-0.0381469725,134.7,216.29999999999998,-39.9,48988
0.06023800760642866,0.0027106949236076886,0.9870864079980957,0.076293945,0.0,0.015258789,134.7,218.7,-42.3,49281
0.06042203410624463,-6.160670280926565e-05,0.9875624851225898,-0.106811523,-0.0686645505,0.0228881835,129.9,218.7,-42.9,49574
0.06232364127100969,0.0017249876786594382,0.9870864079980957,0.0076293945,-0.0839233395,0.030517578,137.1,216.29999999999998,-41.1,49868
0.06103545577229788,0.0030803351404632825,0.988038562247084,0.045776367,-0.045776367,0.045776367,134.7,216.29999999999998,-40.5,50163
0.06263035210403632,-0.0003696402168555939,0.9855391573434896,-0.030517578,-0.0076293945,-0.030517578,127.5,221.1,-41.1,50456
0.061648877438351124,0.0018482010842779694,0.9876219947631516,-0.0534057615,-0.0076293945,-0.0839233395,132.29999999999998,216.29999999999998,-41.1,50749
0.06232364127100969,0.002957121734844751,0.9847060223756249,-0.0534057615,0.015258789,-0.045776367,132.29999999999998,216.29999999999998,-41.1,51044
0.06103545577229788,0.002279448003942829,0.985717686265175,0.1296997065,0.015258789,0.045776367,132.29999999999998,213.9,-39.9,51337
0.06005398110661268,0.0006160670280926564,0.9858367055462985,-0.030517578,-0.0228881835,-0.0228881835,134.7,213.9,-43.5,51631
0.0613421666053245,0.0007392804337111878,0.9848845512973101,-0.030517578,-0.106811523,0.045776367,129.9,218.7,-42.3,51924
0.060974113605692555,-0.0011705273533760474,0.9867293501547251,0.0686645505,-0.076293945,0.045776367,134.7,218.7,-40.5,52220
0.06342780026990553,0.0011089206505667817,0.9864318019519163,0.0686645505,-0.0534057615,0.030517578,137.1,216.29999999999998,-42.3,52512
0.06152619310514047,0.0016633809758501725,0.9868483694358486,-0.030517578,0.0686645505,0.0839233395,134.7,218.7,-41.1,52806
0.06189424610477242,0.00043124691966485955,0.9849440609378719,-0.0381469725,0.0228881835,-0.0228881835,139.5,223.5,-39.9,53100
0.06042203410624463,0.002587481517989157,0.9862532730302309,0.0076293945,-0.091552734,-0.0381469725,132.29999999999998,213.9,-41.1,53394
0.0610967979389032,0.0016017742730409068,0.985955724827422,0.030517578,-0.091552734,0.0,132.29999999999998,216.29999999999998,-42.3,53687
0.05845908477487425,0.0004928536224741252,0.985182099500119,0.015258789,-0.0534057615,0.015258789,129.9,216.29999999999998,-42.3,53981
0.05913384860753282,-0.0001232134056185313,0.9864913115924779,0.0381469725,0.0,-0.0534057615,129.9,211.5,-41.1,54275
0.06373451110293216,0.0004928536224741252,0.9876219947631516,0.045776367,-0.0534057615,0.0076293945,127.5,221.1,-41.1,54570
0.06348914243651085,0.0028339083292262196,0.9870864079980957,0.091552734,-0.106811523,0.0,132.29999999999998,216.29999999999998,-42.3,54864
0.0645933014354067,0.00425086249383933,0.9871459176386574,0.0,-0.0534057615,0.015258789,139.5,209.1,-41.699999999999996,55160
0.06348914243651085,0.0038196155741744703,0.9867888597952869,0.076293945,-0.0686645505,0.0534057615,132.29999999999998,216.29999999999998,-41.1,55455
0.060851429272481904,0.0025258748151798915,0.9877410140442752,0.045776367,-0.0534057615,0.030517578,132.29999999999998,218.7,-41.699999999999996,55750
0.05766163660900503,0.0003696402168555939,0.987800523684837,-0.0686645505,-0.0839233395,0.0839233395,129.9,223.5,-44.1,56042
0.05686418844313581,-0.0015401675702316413,0.9891692454177576,-0.030517578,-0.15258789,-0.0228881835,132.29999999999998,221.1,-42.3,56337
0.059379217273954114,-0.0008624938393297191,0.9870864079980957,-0.015258789,-0.076293945,-0.0228881835,132.29999999999998,213.9,-40.5,56630
0.06312108943687891,0.0028339083292262196,0.9860152344679838,-0.0076293945,-0.045776367,-0.045776367,134.7,211.5,-41.699999999999996,56924
0.06318243160348423,0.0027723016264169544,0.9865508212330397,0.030517578,0.0534057615,-0.0381469725,137.1,213.9,-41.1,57221
0.06526806526806526,0.005174963035978314,0.988038562247084,0.1602172845,-0.0534057615,0.0076293945,137.1,213.9,-42.3,57514
0.06440927493559072,0.0032651552488910792,0.9875624851225898,0.0,-0.061035156,0.015258789,139.5,209.1,-41.699999999999996,57807
0.06091277143908723,0.0008624938393297191,0.9864913115924779,-0.0228881835,-0.061035156,0.030517578,132.29999999999998,218.7,-42.3,58100
0.060299349773033986,-0.0020330211927057666,0.9881575815282075,0.0534057615,0.0,0.045776367,134.7,211.5,-39.9,58395
0.05974727027358606,-0.0032651552488910792,0.9871459176386574,0.0228881835,-0.106811523,-0.0228881835,132.29999999999998,216.29999999999998,-40.5,58688
0.061832903938167094,-0.0003080335140463282,0.9860747441085456,0.015258789,-0.122070312,0.015258789,139.5,216.29999999999998,-41.699999999999996,58984
0.06250766777082567,0.0024642681123706258,0.9853011187812426,0.0686645505,-0.030517578,-0.0686645505,134.7,209.1,-41.699999999999996,59280
0.06299840510366826,0.0034499753573188764,0.9889907164960724,0.015258789,-0.0228881835,0.0076293945,137.1,216.29999999999998,-41.1,59574
0.06342780026990553,0.004312469196648595,0.9876219947631516,0.015258789,-0.015258789,0.045776367,129.9,213.9,-42.3,59868
0.05907250644092749,0.00018482010842779694,0.98387288740776,0.030517578,-0.106811523,0.015258789,132.29999999999998,216.29999999999998,-41.699999999999996,60161
0.060176665439823335,-0.0011705273533760474,0.9875624851225898,-0.106811523,-0.091552734,0.030517578,127.5,211.5,-41.1,60457
0.060851429272481904,-0.0024026614095613605,0.9867293501547251,-0.061035156,-0.076293945,0.091552734,134.7,216.29999999999998,-41.1,60749
0.0585817691080849,0.0011705273533760474,0.9894667936205666,-0.0381469725,-0.015258789,-0.0686645505,134.7,213.9,-41.699999999999996,61043
0.05888847994111152,0.0024642681123706258,0.987800523684837,-0.0839233395,-0.0228881835,-0.0839233395,132.29999999999998,211.5,-42.3,61338
0.0615875352717458,0.0028955150320354854,0.9857771959057368,0.0381469725,0.0228881835,0.0,134.7,209.1,-42.9,61631
0.06275303643724696,0.0033883686545096107,0.9874434658414664,0.0534057615,0.0228881835,-0.091552734,132.29999999999998,213.9,-41.1,61923
0.06091277143908723,0.0028955150320354854,0.9842894548916925,0.045776367,-0.030517578,-0.0534057615,134.7,218.7,-39.9,62217
0.06066740277266593,0.0009857072449482504,0.985717686265175,0.0076293945,-0.0228881835,0.0228881835,132.29999999999998,218.7,-40.5,62512
0.05962458594037542,0.0002464268112370626,0.9883361104498929,-0.076293945,-0.045776367,0.061035156,134.7,216.29999999999998,-41.699999999999996,62806
0.060974113605692555,0.0024642681123706258,0.9847060223756249,-0.091552734,-0.0686645505,0.0,134.7,218.7,-41.699999999999996,63100
0.05876579560790087,0.0021562345983242976,0.9854201380623661,-0.030517578,-0.076293945,0.0076293945,129.9,211.5,-41.699999999999996,63394
0.05986995460679671,0.0006160670280926564,0.9858962151868603,0.030517578,-0.1144409175,-0.0534057615,132.29999999999998,211.5,-42.9,63687
0.061955588271377746,0.0014169541646131098,0.9884551297310165,0.0,-0.030517578,-0.030517578,127.5,221.1,-42.3,63981
0.06146485093853515,0.0012937407589945786,0.9862532730302309,-0.1296997065,-0.030517578,-0.015258789,132.29999999999998,216.29999999999998,-40.5,64276
0.060483376272849956,0.0014169541646131098,0.9858962151868603,-0.0076293945,-0.061035156,0.061035156,137.1,218.7,-39.9,64572
0.060299349773033986,0.002279448003942829,0.9852416091406808,0.061035156,-0.0228881835,0.076293945,134.7,211.5,-42.9,64864
0.05944055944055944,0.0002464268112370626,0.9870864079980957,0.015258789,0.061035156,0.0534057615,129.9,218.7,-42.9,65158
0.06079008710587658,6.160670280926565e-05,0.988812187574387,0.0228881835,0.030517578,0.045776367,134.7,216.29999999999998,-41.1,65452
0.05993129677340204,0.002649088220798423,0.9853011187812426,0.183105468,-0.0381469725,-0.045776367,137.1,213.9,-41.1,65746
0.06238498343761502,0.0030803351404632825,0.9858962151868603,0.183105468,-0.015258789,-0.1144409175,134.7,218.7,-42.9,66038
0.06146485093853515,0.0008008871365204534,0.9873839562009046,0.0228881835,0.015258789,0.061035156,132.29999999999998,216.29999999999998,-42.9,66332
0.060851429272481904,0.002279448003942829,0.9875624851225898,0.0,-0.030517578,-0.0228881835,132.29999999999998,213.9,-41.699999999999996,66627
0.06066740277266593,0.0004928536224741252,0.9861937633896691,-0.0076293945,-0.061035156,0.061035156,134.7,216.29999999999998,-40.5,66920
0.06324377377008956,-0.0005544603252833908,0.9864318019519163,0.0,0.0,0.0228881835,132.29999999999998,216.29999999999998,-40.5,67213
0.06263035210403632,0.0013553474618038443,0.9865508212330397,0.061035156,-0.061035156,0.030517578,129.9,213.9,-43.5,67508
0.06226229910440437,0.001971414489896501,0.988038562247084,0.045776367,-0.015258789,0.0,134.7,209.1,-42.3,67803
0.060176665439823335,0.003018728437654017,0.9874434658414664,0.076293945,-0.0076293945,0.106811523,134.7,218.7,-41.699999999999996,68096
0.06005398110661268,0.0028955150320354854,0.9886931682932635,0.106811523,-0.0534057615,0.0228881835,134.7,211.5,-41.1,68389
0.059992638940007365,0.0006776737309019222,0.988038562247084,0.030517578,-0.1449584955,-0.015258789,139.5,209.1,-40.5,68685
0.06072874493927125,0.001047313947757516,0.9853011187812426,0.106811523,-0.122070312,0.030517578,134.7,213.9,-41.699999999999996,68977
0.06103545577229788,0.0016017742730409068,0.9873244465603428,0.0991821285,-0.0381469725,0.0228881835,134.7,218.7,-41.699999999999996,69272
0.06256900993743099,0.0013553474618038443,0.988812187574387,-0.045776367,-0.0991821285,-0.045776367,132.29999999999998,218.7,-42.3,69567
0.0633664581033002,-6.160670280926565e-05,0.9871459176386574,0.0076293945,-0.0076293945,0.015258789,134.7,218.7,-42.3,69861
0.06250766777082567,0.004743716116313455,0.9854201380623661,0.167846679,0.0076293945,0.0534057615,137.1,218.7,-39.9,70154
0.06232364127100969,0.004312469196648595,0.9873244465603428,0.0839233395,-0.015258789,-0.0076293945,127.5,216.29999999999998,-44.1,70448
0.06152619310514047,0.0020330211927057666,0.9870864079980957,0.030517578,-0.030517578,0.0686645505,137.1,218.7,-41.1,70743
0.06140350877192982,-0.0005544603252833908,0.9874434658414664,0.091552734,0.0,0.045776367,132.29999999999998,221.1,-41.1,71036
0.06079008710587658,0.0008624938393297191,0.9864913115924779,0.0228881835,-0.0534057615,0.015258789,134.7,213.9,-41.699999999999996,71329
0.059501901607164766,-6.160670280926565e-05,0.9855391573434896,-0.0839233395,-0.0839233395,0.0381469725,134.7,211.5,-41.699999999999996,71624
0.061158140105508525,0.0009241005421389847,0.9873839562009046,-0.0228881835,0.030517578,-0.0076293945,127.5,216.29999999999998,-42.9,71919
0.0615875352717458,0.003634795465746673,0.9850630802189955,-0.045776367,-0.0839233395,-0.0076293945,129.9,223.5,-41.699999999999996,72213
0.06079008710587658,0.003018728437654017,0.9860152344679838,-0.0381469725,-0.0686645505,0.061035156,139.5,211.5,-42.9,72506
0.06373451110293216,0.0012321340561853129,0.9858962151868603,0.061035156,0.015258789,0.0534057615,134.7,216.29999999999998,-41.699999999999996,72802
0.06023800760642866,0.0003696402168555939,0.9836943584860748,0.122070312,-0.0839233395,0.122070312,134.7,213.9,-42.3,73095
0.06011532327321801,-0.0014169541646131098,0.9845870030945013,0.0686645505,0.0076293945,0.0,134.7,211.5,-41.699999999999996,73391
0.06121948227211385,0.00018482010842779694,0.9873244465603428,-0.015258789,-0.045776367,-0.0228881835,137.1,213.9,-42.9,73686
0.06091277143908723,0.0016633809758501725,0.9866103308736015,0.030517578,-0.0534057615,-0.015258789,137.1,213.9,-42.3,73980
0.06128082443871918,0.004374075899457861,0.9873244465603428,-0.076293945,-0.0534057615,-0.0076293945,137.1,216.29999999999998,-41.699999999999996,74272
0.06391853760274813,0.003326761951700345,0.9841704356105689,0.045776367,-0.0228881835,-0.0381469725,129.9,209.1,-41.1,74566
0.061648877438351124,0.0002464268112370626,0.9841109259700072,0.122070312,-0.076293945,0.015258789,139.5,213.9,-41.1,74860
0.05913384860753282,-6.160670280926565e-05,0.98387288740776,0.091552734,-0.1144409175,0.0534057615,132.29999999999998,218.7,-41.1,75146
0.06072874493927125,0.0001232134056185313,0.9866103308736015,-0.0076293945,-0.106811523,0.0991821285,141.9,213.9,-42.3,75432
0.05974727027358606,0.0005544603252833908,0.9875624851225898,-0.0076293945,0.0076293945,0.0228881835,129.9,211.5,-41.699999999999996,75719
0.06189424610477242,0.002649088220798423,0.9867888597952869,0.030517578,-0.0381469725,0.0381469725,137.1,213.9,-42.3,76004
0.05986995460679671,0.0019098077870872351,0.9860747441085456,0.0686645505,0.0381469725,-0.0076293945,134.7,218.7,-41.699999999999996,76290
0.059501901607164766,0.002649088220798423,0.9866103308736015,0.0076293945,-0.030517578,0.0228881835,132.29999999999998,213.9,-42.9,76575
0.06066740277266593,-0.0003696402168555939,0.9856581766246132,0.0228881835,-0.0686645505,0.030517578,132.29999999999998,213.9,-41.699999999999996,76861
0.06232364127100969,0.0,0.9855986669840514,0.0,-0.0991821285,0.030517578,137.1,213.9,-42.3,77146
0.06072874493927125,0.0017865943814687037,0.9842894548916925,-0.0686645505,-0.122070312,0.0381469725,134.7,213.9,-41.1,77431
0.06072874493927125,0.002279448003942829,0.9862532730302309,0.106811523,-0.076293945,0.0381469725,139.5,211.5,-40.5,77716
0.06189424610477242,0.0004928536224741252,0.9883956200904547,0.1144409175,0.0228881835,0.0534057615,137.1,216.29999999999998,-42.3,78001
0.06140350877192982,0.0016633809758501725,0.9848845512973101,0.061035156,-0.015258789,-0.030517578,132.29999999999998,211.5,-40.5,78286
0.06324377377008956,0.0021562345983242976,0.9850035705784337,-0.030517578,-0.0534057615,-0.0228881835,129.9,218.7,-42.3,78572
0.06177156177156177,0.0024642681123706258,0.9881575815282075,0.0839233395,-0.0381469725,0.030517578,134.7,216.29999999999998,-42.3,78857
0.0620782726045884,0.0003080335140463282,0.9892882646988812,-0.091552734,-0.0534057615,0.106811523,134.7,218.7,-40.5,79143
0.061158140105508525,0.0006160670280926564,0.9882170911687693,-0.0076293945,0.0076293945,0.0839233395,134.7,216.29999999999998,-41.699999999999996,79428
0.061648877438351124,-0.0007392804337111878,0.9865508212330397,-0.0228881835,0.0381469725,0.0228881835,139.5,216.29999999999998,-42.3,79714
0.060974113605692555,0.0033883686545096107,0.9870864079980957,-0.0076293945,-0.015258789,0.0,129.9,216.29999999999998,-43.5,80001
0.05907250644092749,0.001047313947757516,0.9850630802189955,0.137329101,0.0,0.0228881835,132.29999999999998,213.9,-42.9,80287
0.060851429272481904,0.0017865943814687037,0.9871459176386574,0.0534057615,0.0076293945,0.0991821285,132.29999999999998,213.9,-40.5,80572
0.06263035210403632,0.0028339083292262196,0.9845274934539395,0.0228881835,-0.0228881835,0.0228881835,137.1,213.9,-41.1,80859
0.06220095693779904,0.0006776737309019222,0.9886931682932635,0.0076293945,0.061035156,0.0076293945,129.9,225.9,-41.1,81144
0.060176665439823335,0.00043124691966485955,0.9877410140442752,-0.0228881835,0.0,0.0381469725,132.29999999999998,218.7,-41.1,81430
0.05980861244019139,-0.0006776737309019222,0.987264936919781,0.137329101,-0.0228881835,0.0534057615,141.9,211.5,-40.5,81714
0.05925653294074347,-0.00018482010842779694,0.9860152344679838,0.0991821285,-0.015258789,0.0228881835,134.7,221.1,-41.1,82000
0.05980861244019139,-0.00043124691966485955,0.9854796477029278,0.0076293945,-0.0381469725,-0.0076293945,134.7,216.29999999999998,-41.1,82286
0.0613421666053245,0.0028339083292262196,0.9857771959057368,0.0,-0.0839233395,-0.106811523,139.5,216.29999999999998,-40.5,82574
0.06054471843945528,0.0028955150320354854,0.9877410140442752,0.122070312,-0.0381469725,-0.0839233395,132.29999999999998,213.9,-42.3,82860
0.06232364127100969,0.0012937407589945786,0.9879195429659605,-0.015258789,-0.0839233395,0.0228881835,129.9,216.29999999999998,-41.1,83146
0.06238498343761502,0.001971414489896501,0.9841109259700072,0.0686645505,-0.106811523,0.030517578,134.7,216.29999999999998,-41.1,83431
0.06171021960495645,-0.0024026614095613605,0.983634848845513,0.0076293945,0.0228881835,0.0,134.7,216.29999999999998,-41.1,83718
0.061832903938167094,-0.002279448003942829,0.9861937633896691,0.0686645505,-0.015258789,0.076293945,139.5,218.7,-41.1,84003
0.060299349773033986,0.0008008871365204534,0.9879790526065223,-0.015258789,-0.045776367,0.0686645505,137.1,209.1,-40.5,84289
0.06232364127100969,0.0014785608674223755,0.9886336586527017,-0.076293945,0.015258789,0.0076293945,134.7,213.9,-41.1,84573
0.061955588271377746,0.002957121734844751,0.9855986669840514,-0.0228881835,-0.0076293945,0.015258789,132.29999999999998,221.1,-42.3,84859
0.06189424610477242,0.002649088220798423,0.9870864079980957,-0.0381469725,0.030517578,0.061035156,129.9,213.9,-42.3,85146
0.061955588271377746,0.0032651552488910792,0.9868483694358486,-0.015258789,-0.030517578,-0.0076293945,127.5,216.29999999999998,-41.1,85432
0.06146485093853515,0.0011089206505667817,0.9891692454177576,-0.0228881835,-0.076293945,-0.0228881835,134.7,218.7,-42.3,85717
0.0620782726045884,0.0014785608674223755,0.9851225898595573,-0.0534057615,0.061035156,0.0,127.5,213.9,-42.9,86003
0.05888847994111152,0.0001232134056185313,0.9874434658414664,0.045776367,0.015258789,0.076293945,132.29999999999998,218.7,-40.5,86288
0.060299349773033986,-0.0004928536224741252,0.9861937633896691,0.0076293945,-0.0076293945,0.0381469725,129.9,213.9,-40.5,86574
0.06201693043798307,0.0009241005421389847,0.9858962151868603,-0.0381469725,-0.0381469725,0.0076293945,132.29999999999998,213.9,-40.5,86859
0.06324377377008956,0.0031419418432725482,0.9882170911687693,0.030517578,-0.030517578,0.0381469725,139.5,211.5,-41.699999999999996,87145
0.06305974727027358,0.0033883686545096107,0.9876219947631516,-0.0839233395,-0.1144409175,-0.0228881835,137.1,211.5,-41.1,87430
0.06263035210403632,0.0017865943814687037,0.987800523684837,-0.0076293945,-0.1144409175,0.015258789,134.7,218.7,-41.699999999999996,87717
0.05993129677340204,0.001047313947757516,0.9855391573434896,0.015258789,-0.122070312,0.0991821285,127.5,206.7,-42.9,88002
0.059195190774138144,-0.0009241005421389847,0.9842894548916925,0.0,-0.0686645505,0.0381469725,132.29999999999998,218.7,-41.1,88289
0.05796834744203165,0.0003696402168555939,0.9886336586527017,0.0534057615,-0.0686645505,0.045776367,134.7,221.1,-41.699999999999996,88573
0.06232364127100969,0.0005544603252833908,0.9854201380623661,0.030517578,-0.030517578,0.030517578,132.29999999999998,211.5,-42.3,88861
0.06373451110293216,0.0023410547067520947,0.9879195429659605,-0.0076293945,-0.061035156,0.0686645505,132.29999999999998,218.7,-42.9,89146
0.06483867010182799,0.0021562345983242976,0.9857771959057368,0.015258789,-0.0228881835,0.015258789,127.5,213.9,-41.699999999999996,89432
0.06232364127100969,0.0016017742730409068,0.9886336586527017,-0.076293945,-0.0381469725,0.0534057615,137.1,216.29999999999998,-40.5,89717
0.0610967979389032,0.0020330211927057666,0.9870268983575339,-0.0381469725,0.0228881835,0.030517578,132.29999999999998,218.7,-41.1,90003
0.05944055944055944,0.0,0.9875624851225898,-0.030517578,-0.0381469725,0.045776367,125.1,213.9,-39.3,90290
0.06072874493927125,-0.001047313947757516,0.9876815044037134,-0.0991821285,-0.0991821285,0.0,129.9,218.7,-40.5,90575
0.060974113605692555,-0.001047313947757516,0.9855391573434896,-0.1296997065,-0.030517578,0.015258789,139.5,221.1,-41.699999999999996,90861
0.0633664581033002,0.0037580088713652046,0.9858367055462985,0.030517578,-0.076293945,-0.0381469725,127.5,218.7,-42.3,91148
0.06312108943687891,0.0020330211927057666,0.9850035705784337,-0.0534057615,-0.0228881835,0.0228881835,137.1,216.29999999999998,-42.3,91435
0.06220095693779904,0.0006776737309019222,0.9889312068555106,0.0534057615,0.0381469725,0.0076293945,132.29999999999998,221.1,-44.1,91721
0.05962458594037542,0.0011089206505667817,0.9896453225422518,-0.030517578,0.0534057615,0.0228881835,134.7,213.9,-40.5,92006
0.061158140105508525,-0.001047313947757516,0.9884551297310165,0.0076293945,0.030517578,0.1144409175,132.29999999999998,213.9,-41.699999999999996,92292
0.0613421666053245,-0.001047313947757516,0.9875624851225898,0.076293945,0.091552734,0.030517578,137.1,213.9,-42.3,92577
0.06079008710587658,-0.0006160670280926564,0.9873244465603428,-0.0381469725,-0.0228881835,-0.0534057615,137.1,211.5,-41.699999999999996,92865
0.06250766777082567,0.002094627895515032,0.987502975482028,0.0076293945,-0.0381469725,0.015258789,137.1,221.1,-41.1,93150
0.06103545577229788,0.0037580088713652046,0.9879790526065223,-0.045776367,-0.015258789,0.015258789,132.29999999999998,218.7,-41.699999999999996,93436
0.06238498343761502,0.0027106949236076886,0.9865508212330397,0.0381469725,-0.076293945,0.0228881835,129.9,221.1,-42.9,93721
0.06121948227211385,0.0015401675702316413,0.984408474172816,-0.030517578,-0.030517578,0.030517578,134.7,218.7,-41.1,94009
0.05888847994111152,0.00043124691966485955,0.9847060223756249,0.0381469725,-0.0839233395,-0.0228881835,132.29999999999998,216.29999999999998,-41.1,94295
0.06121948227211385,0.0008624938393297191,0.9858367055462985,0.1296997065,-0.0534057615,0.0381469725,137.1,211.5,-42.3,94581
0.06060606060606061,-0.0008624938393297191,0.9868483694358486,0.061035156,-0.0228881835,0.0686645505,129.9,211.5,-41.699999999999996,94867
0.06091277143908723,0.0025258748151798915,0.9854201380623661,0.0686645505,0.015258789,0.045776367,132.29999999999998,213.9,-42.9,95153
0.06330511593669488,0.004066042385411533,0.985717686265175,0.1296997065,-0.061035156,0.015258789,132.29999999999998,216.29999999999998,-41.699999999999996,95442
0.06171021960495645,0.0046821094135041895,0.9862532730302309,0.0381469725,-0.0991821285,0.106811523,137.1,218.7,-41.699999999999996,95729
0.06023800760642866,0.0002464268112370626,0.9872054272792192,0.076293945,0.0534057615,0.045776367,127.5,216.29999999999998,-40.5,96014
0.05925653294074347,-0.0012937407589945786,0.9892882646988812,0.076293945,-0.0076293945,0.0534057615,134.7,211.5,-40.5,96301
0.0585817691080849,-0.0006776737309019222,0.9872054272792192,0.1449584955,-0.091552734,0.0381469725,129.9,211.5,-40.5,96587
0.058397742608268924,-0.0007392804337111878,0.9856581766246132,0.0534057615,0.0076293945,0.045776367,129.9,216.29999999999998,-42.3,96872
0.05962458594037542,0.0015401675702316413,0.9879790526065223,-0.061035156,-0.0228881835,0.0076293945,139.5,216.29999999999998,-41.699999999999996,97157
0.0615875352717458,0.0017865943814687037,0.9873839562009046,-0.045776367,-0.0534057615,-0.091552734,137.1,211.5,-40.5,97444
0.06440927493559072,0.0032651552488910792,0.9849440609378719,-0.061035156,-0.0686645505,-0.0381469725,134.7,211.5,-41.699999999999996,97728
0.06201693043798307,0.0028955150320354854,0.9861937633896691,-0.0839233395,-0.0839233395,0.030517578,134.7,213.9,-42.3,98015
0.0615875352717458,0.0021562345983242976,0.9864913115924779,-0.0228881835,-0.1144409175,0.0076293945,141.9,216.29999999999998,-43.5,98300
0.06066740277266593,0.0006160670280926564,0.9887526779338253,0.061035156,0.0228881835,0.061035156,134.7,216.29999999999998,-41.1,98586
0.06177156177156177,0.0005544603252833908,0.9869673887169722,0.061035156,0.030517578,0.076293945,132.29999999999998,221.1,-39.9,98871
0.06287572077045761,-0.0008008871365204534,0.9852416091406808,0.0534057615,-0.030517578,0.030517578,134.7,221.1,-42.3,99159
0.05974727027358606,0.0012321340561853129,0.985717686265175,0.061035156,0.0,0.076293945,129.9,216.29999999999998,-39.9,99444
0.06091277143908723,-0.0017865943814687037,0.9870268983575339,0.091552734,-0.045776367,0.015258789,137.1,211.5,-41.699999999999996,99729
0.0588271377745062,-0.00018482010842779694,0.9865508212330397,0.030517578,-0.045776367,0.106811523,134.7,218.7,-42.3,100016
0.06011532327321801,0.0024026614095613605,0.9842894548916925,0.0381469725,-0.061035156,0.030517578,139.5,209.1,-42.3,100302
0.06066740277266593,0.0008008871365204534,0.987800523684837,-0.030517578,-0.0228881835,-0.015258789,137.1,218.7,-41.699999999999996,100588
0.060974113605692555,0.003511582060128142,0.9880980718876458,0.015258789,-0.0534057615,0.0,137.1,216.29999999999998,-42.3,100874
0.06066740277266593,0.004312469196648595,0.9887526779338253,-0.0076293945,-0.0686645505,0.015258789,139.5,213.9,-42.3,101159
0.06060606060606061,0.001047313947757516,0.9878600333253987,0.0991821285,-0.045776367,0.0991821285,132.29999999999998,213.9,-39.3,101445
0.06146485093853515,0.0,0.9861937633896691,0.061035156,-0.015258789,0.030517578,141.9,216.29999999999998,-42.3,101733
0.06263035210403632,0.002957121734844751,0.9868483694358486,0.045776367,-0.030517578,-0.0228881835,134.7,213.9,-42.9,102019
0.05907250644092749,0.0016017742730409068,0.9884551297310165,0.1144409175,0.0,0.1296997065,137.1,211.5,-40.5,102304
0.060851429272481904,0.0022178413011335633,0.9855391573434896,0.0991821285,-0.045776367,0.045776367,137.1,218.7,-42.3,102589
0.06146485093853515,0.0027723016264169544,0.985182099500119,0.045776367,-0.091552734,-0.045776367,134.7,216.29999999999998,-42.9,102874
0.06299840510366826,0.0012321340561853129,0.9875624851225898,0.061035156,0.0,-0.061035156,139.5,221.1,-42.9,103160
0.06011532327321801,0.0015401675702316413,0.9870268983575339,-0.045776367,-0.030517578,0.0686645505,137.1,213.9,-41.1,103445
0.05993129677340204,0.002094627895515032,0.9865508212330397,0.0076293945,-0.0228881835,0.091552734,134.7,218.7,-39.9,103731
0.062139614771193716,0.0012937407589945786,0.9870864079980957,0.0839233395,0.0076293945,0.106811523,134.7,218.7,-41.699999999999996,104015
0.06066740277266593,-0.0007392804337111878,0.9847060223756249,0.030517578,-0.091552734,0.0228881835,137.1,213.9,-41.699999999999996,104302
0.06140350877192982,-0.0006160670280926564,0.987502975482028,0.0686645505,-0.0991821285,-0.015258789,134.7,211.5,-41.699999999999996,104588
0.06318243160348423,0.0011089206505667817,0.9862532730302309,0.0381469725,-0.0534057615,-0.045776367,139.5,213.9,-42.3,104874
0.06355048460311619,0.004805322819122721,0.9861937633896691,0.0686645505,0.0,0.0,137.1,216.29999999999998,-40.5,105158
0.0636118267697215,0.003326761951700345,0.9865508212330397,-0.0076293945,0.0076293945,0.0228881835,132.29999999999998,221.1,-41.699999999999996,105444
0.06171021960495645,0.0019098077870872351,0.9857771959057368,0.0228881835,-0.106811523,0.076293945,134.7,213.9,-41.1,105731
0.06072874493927125,0.002094627895515032,0.9882170911687693,-0.0076293945,-0.091552734,0.061035156,132.29999999999998,216.29999999999998,-38.699999999999996,106017
0.059501901607164766,0.0001232134056185313,0.9894072839800048,0.045776367,-0.0381469725,0.061035156,137.1,218.7,-41.1,106304
0.06079008710587658,0.0005544603252833908,0.988038562247084,0.0381469725,-0.0228881835,0.015258789,137.1,216.29999999999998,-42.3,106589
0.06140350877192982,0.0012321340561853129,0.9873244465603428,0.0686645505,-0.045776367,0.015258789,137.1,218.7,-41.1,106875
0.060974113605692555,0.0022178413011335633,0.9847060223756249,0.015258789,-0.076293945,-0.0076293945,125.1,218.7,-41.699999999999996,107161
0.06490001226843332,0.0031419418432725482,0.9847655320161867,0.030517578,0.0,-0.030517578,134.7,218.7,-41.699999999999996,107446
0.06299840510366826,0.0041276490882207984,0.985717686265175,0.0076293945,0.0534057615,-0.0534057615,132.29999999999998,211.5,-40.5,107732
0.06072874493927125,0.0022178413011335633,0.9867888597952869,0.0,-0.015258789,0.045776367,134.7,221.1,-43.5,108018
0.058520426941479575,-0.0017249876786594382,0.9853011187812426,0.015258789,-0.030517578,0.045776367,132.29999999999998,218.7,-40.5,108306
0.05845908477487425,-0.0014785608674223755,0.9876815044037134,-0.0228881835,-0.0228881835,0.0,129.9,218.7,-40.5,108591
0.05974727027358606,-0.0001232134056185313,0.9876815044037134,0.15258789,0.015258789,0.030517578,137.1,213.9,-39.9,108879
0.06171021960495645,0.0012321340561853129,0.9892287550583194,0.1296997065,-0.0839233395,0.0228881835,134.7,211.5,-42.3,109164
0.06305974727027358,0.0028339083292262196,0.9881575815282075,-0.0228881835,-0.076293945,0.015258789,134.7,216.29999999999998,-41.699999999999996,109450
0.0645933014354067,0.004066042385411533,0.9866103308736015,0.0076293945,-0.061035156,0.0534057615,137.1,213.9,-41.699999999999996,109736
0.059501901607164766,0.0025258748151798915,0.9868483694358486,0.030517578,-0.045776367,0.015258789,141.9,213.9,-40.5,110022
0.05980861244019139,0.0,0.9850035705784337,-0.015258789,-0.0991821285,0.045776367,134.7,216.29999999999998,-41.699999999999996,110306
0.06066740277266593,-0.0030803351404632825,0.9866103308736015,0.0991821285,-0.0076293945,0.076293945,141.9,213.9,-42.3,110592
0.0585817691080849,-0.001047313947757516,0.9837538681266366,-0.0991821285,-0.0839233395,0.0534057615,132.29999999999998,213.9,-40.5,110878
0.06293706293706294,0.0007392804337111878,0.9860747441085456,-0.045776367,-0.091552734,0.0076293945,132.29999999999998,216.29999999999998,-41.699999999999996,111164
0.0641025641025641,0.004004435682602267,0.9876219947631516,0.030517578,-0.0228881835,-0.106811523,129.9,216.29999999999998,-41.699999999999996,111450
0.06226229910440437,0.004374075899457861,0.985717686265175,-0.045776367,-0.0076293945,-0.030517578,137.1,221.1,-41.1,111736
0.06238498343761502,0.0024026614095613605,0.9855391573434896,0.0991821285,0.030517578,0.030517578,137.1,211.5,-44.1,112021
0.060851429272481904,0.0003696402168555939,0.9875624851225898,0.076293945,0.045776367,0.0686645505,134.7,216.29999999999998,-41.699999999999996,112307
0.06066740277266593,-0.0025258748151798915,0.9889312068555106,0.045776367,0.030517578,0.061035156,137.1,213.9,-41.699999999999996,112593
0.058213716108452954,-0.0014785608674223755,0.9876815044037134,0.0534057615,-0.0991821285,0.030517578,134.7,216.29999999999998,-42.3,112879
0.05925653294074347,0.0003080335140463282,0.9885146393715782,-0.122070312,0.0076293945,0.0,132.29999999999998,218.7,-41.699999999999996,113165
0.0615875352717458,0.004374075899457861,0.9877410140442752,-0.0534057615,-0.030517578,0.030517578,139.5,218.7,-43.5,113452
0.06348914243651085,0.0032035485460818135,0.9845870030945013,0.076293945,0.0228881835,-0.015258789,137.1,216.29999999999998,-41.699999999999996,113737
0.06256900993743099,0.004866929521931986,0.9877410140442752,0.106811523,-0.030517578,-0.0381469725,129.9,213.9,-41.699999999999996,114024
0.062446325604220344,0.003634795465746673,0.9864913115924779,0.0991821285,0.0076293945,0.076293945,132.29999999999998,211.5,-42.3,114309
0.061158140105508525,-0.001047313947757516,0.9865508212330397,0.0839233395,0.015258789,0.0534057615,137.1,221.1,-42.3,114596
0.05931787510734879,-0.001047313947757516,0.9862532730302309,0.030517578,-0.061035156,-0.015258789,137.1,211.5,-41.699999999999996,114882
0.05944055944055944,-0.0012321340561853129,0.9889312068555106,-0.0076293945,-0.030517578,0.0228881835,137.1,216.29999999999998,-42.9,115169
0.06042203410624463,-0.0016633809758501725,0.987800523684837,-0.015258789,0.0,-0.045776367,134.7,221.1,-41.699999999999996,115454
0.06263035210403632,0.003326761951700345,0.9861937633896691,0.045776367,-0.015258789,-0.0534057615,139.5,218.7,-41.1,115740
0.06318243160348423,0.005667816658452439,0.9865508212330397,0.015258789,-0.061035156,-0.045776367,127.5,211.5,-41.1,116025
0.06355048460311619,0.005729423361261705,0.9842299452511307,0.015258789,-0.0839233395,-0.0076293945,137.1,211.5,-39.3,116312
0.0620782726045884,0.003942828979793002,0.9876815044037134,-0.0534057615,0.045776367,0.0991821285,129.9,211.5,-41.1,116596
0.060483376272849956,0.0008624938393297191,0.9876219947631516,0.045776367,0.061035156,0.0228881835,129.9,221.1,-41.699999999999996,116882
0.05931787510734879,-0.002094627895515032,0.9886336586527017,0.137329101,-0.0534057615,0.0381469725,132.29999999999998,213.9,-40.5,117168
0.060176665439823335,-0.0007392804337111878,0.9867293501547251,0.0534057615,0.061035156,0.061035156,139.5,216.29999999999998,-41.699999999999996,117457
0.06023800760642866,0.0003696402168555939,0.9870864079980957,0.0076293945,0.0,-0.030517578,129.9,216.29999999999998,-42.3,117744
0.06079008710587658,0.002957121734844751,0.9858962151868603,0.0,-0.0076293945,0.015258789,134.7,213.9,-41.1,118029
0.06312108943687891,0.0028955150320354854,0.9839323970483218,0.0076293945,0.045776367,-0.015258789,137.1,209.1,-40.5,118314
0.06232364127100969,0.003326761951700345,0.9867293501547251,0.0076293945,-0.0228881835,0.061035156,129.9,213.9,-41.699999999999996,118600
0.06072874493927125,0.0030803351404632825,0.9854796477029278,0.0534057615,-0.0534057615,0.061035156,132.29999999999998,218.7,-41.699999999999996,118885
0.05956324377377009,6.160670280926565e-05,0.9834563199238276,0.1144409175,-0.061035156,-0.015258789,132.29999999999998,206.7,-41.1,119172
0.058397742608268924,-0.0001232134056185313,0.9864318019519163,0.0534057615,-0.106811523,-0.015258789,132.29999999999998,213.9,-41.699999999999996,119458
0.060851429272481904,0.0024026614095613605,0.9873244465603428,0.0534057615,-0.091552734,-0.0381469725,134.7,221.1,-40.5,119744
0.06263035210403632,0.0013553474618038443,0.9880980718876458,0.106811523,0.0228881835,0.015258789,132.29999999999998,209.1,-42.3,120030
0.06103545577229788,0.0009241005421389847,0.9860152344679838,-0.0686645505,0.0686645505,0.0076293945,132.29999999999998,218.7,-42.3,120317
0.061648877438351124,0.003326761951700345,0.9857771959057368,0.0991821285,-0.0381469725,0.0686645505,141.9,218.7,-40.5,120602
0.06171021960495645,0.0007392804337111878,0.9870268983575339,-0.0076293945,-0.0534057615,0.091552734,125.1,218.7,-41.699999999999996,120887
0.061955588271377746,0.0012321340561853129,0.9863127826707927,0.076293945,-0.030517578,0.045776367,137.1,209.1,-42.3,121174
0.05901116427432217,0.0005544603252833908,0.9875624851225898,0.0,0.045776367,0.0534057615,129.9,213.9,-42.9,132727
0.05986995460679671,0.0003080335140463282,0.9879195429659605,0.0991821285,0.0076293945,0.0381469725,134.7,218.7,-40.5,133017
0.05913384860753282,0.0008008871365204534,0.9880980718876458,0.045776367,0.0,0.076293945,132.29999999999998,216.29999999999998,-40.5,133305
0.06171021960495645,0.002094627895515032,0.9860747441085456,-0.061035156,-0.015258789,0.0534057615,134.7,211.5,-42.9,133592
0.06293706293706294,0.0024642681123706258,0.985182099500119,0.091552734,0.030517578,-0.0686645505,127.5,216.29999999999998,-41.699999999999996,133881
0.06128082443871918,0.0022178413011335633,0.9871459176386574,0.015258789,-0.091552734,0.0228881835,139.5,218.7,-41.1,134169
0.06121948227211385,0.0012321340561853129,0.9887526779338253,-0.0228881835,-0.0839233395,0.0381469725,139.5,213.9,-41.699999999999996,134458
0.060851429272481904,-0.0009241005421389847,0.9895263032611283,-0.0228881835,-0.0686645505,0.0076293945,139.5,213.9,-39.9,134746
0.06275303643724696,0.0017249876786594382,0.9863722923113545,0.045776367,-0.091552734,-0.0381469725,134.7,213.9,-42.3,135034
0.06091277143908723,0.0014785608674223755,0.9873839562009046,0.106811523,-0.061035156,-0.015258789,139.5,221.1,-39.9,135321
0.062139614771193716,0.0009241005421389847,0.9873839562009046,0.0839233395,-0.015258789,0.0686645505,129.9,213.9,-41.699999999999996,135608
0.061158140105508525,0.0006160670280926564,0.9855391573434896,0.076293945,-0.0228881835,0.0686645505,134.7,216.29999999999998,-43.5,135896
0.05986995460679671,0.0015401675702316413,0.9862532730302309,0.1296997065,0.0228881835,0.0381469725,139.5,216.29999999999998,-42.3,136184
0.05980861244019139,0.0014785608674223755,0.9873839562009046,-0.030517578,-0.076293945,0.0076293945,134.7,216.29999999999998,-41.699999999999996,136472
0.060483376272849956,0.0006160670280926564,0.9858962151868603,0.0534057615,-0.0228881835,-0.030517578,139.5,223.5,-42.9,136758
0.06287572077045761,0.0008624938393297191,0.9853606284218044,0.122070312,-0.0076293945,0.061035156,134.7,209.1,-41.699999999999996,137044
0.06373451110293216,0.0023410547067520947,0.987264936919781,-0.0381469725,-0.061035156,0.061035156,129.9,211.5,-40.5,137332
0.06348914243651085,0.0031419418432725482,0.9869078790764104,-0.0381469725,-0.0991821285,-0.0228881835,134.7,216.29999999999998,-41.699999999999996,137619
0.06103545577229788,0.0006160670280926564,0.9861937633896691,0.0991821285,-0.045776367,0.0534057615,132.29999999999998,209.1,-42.9,137908
0.06011532327321801,-0.0011705273533760474,0.9866103308736015,0.0991821285,-0.0228881835,0.0076293945,132.29999999999998,216.29999999999998,-40.5,138195
0.05925653294074347,-0.0001232134056185313,0.9880980718876458,0.0991821285,-0.0381469725,-0.030517578,132.29999999999998,213.9,-44.1,138484
0.059195190774138144,-0.0003696402168555939,0.9861342537491073,-0.0076293945,-0.1296997065,0.0534057615,134.7,213.9,-40.5,138772
0.0641025641025641,0.0028955150320354854,0.988038562247084,0.0228881835,0.0076293945,0.0076293945,137.1,218.7,-41.1,139057
0.06054471843945528,0.0019098077870872351,0.9882766008093311,0.030517578,-0.0228881835,0.091552734,137.1,213.9,-39.9,139342
0.06293706293706294,0.0009857072449482504,0.9870268983575339,0.0534057615,-0.0534057615,0.0228881835,137.1,218.7,-43.5,139629
0.062139614771193716,0.002587481517989157,0.9855986669840514,0.0381469725,-0.0534057615,0.0839233395,132.29999999999998,211.5,-41.699999999999996,139914
0.06091277143908723,0.0008008871365204534,0.987502975482028,0.0839233395,-0.15258789,0.0,137.1,213.9,-41.699999999999996,140202
0.059501901607164766,0.0016633809758501725,0.9849440609378719,0.076293945,-0.0991821285,-0.045776367,125.1,213.9,-41.1,140488
0.06042203410624463,0.0020330211927057666,0.9864913115924779,-0.091552734,-0.061035156,-0.0076293945,129.9,213.9,-42.9,140773
0.06299840510366826,0.0007392804337111878,0.987502975482028,0.030517578,-0.0076293945,0.0534057615,137.1,218.7,-39.9,141058
0.0615875352717458,0.0009857072449482504,0.987502975482028,-0.091552734,0.0,0.015258789,137.1,213.9,-43.5,141344
0.060483376272849956,-0.0002464268112370626,0.9854201380623661,-0.061035156,0.0228881835,-0.030517578,132.29999999999998,218.7,-39.9,141628
0.060851429272481904,0.0024642681123706258,0.9866103308736015,0.015258789,0.015258789,0.091552734,139.5,209.1,-43.5,141913
0.05931787510734879,0.0011089206505667817,0.9871459176386574,-0.045776367,-0.015258789,0.1296997065,125.1,213.9,-39.9,142197
0.06146485093853515,0.0020330211927057666,0.9863127826707927,-0.076293945,-0.015258789,0.0,132.29999999999998,209.1,-42.9,142482
0.06121948227211385,-0.0008624938393297191,0.9858962151868603,0.0228881835,-0.045776367,0.0686645505,132.29999999999998,213.9,-41.1,142770
0.06318243160348423,0.0004928536224741252,0.9869673887169722,0.0228881835,-0.0991821285,0.061035156,132.29999999999998,216.29999999999998,-41.699999999999996,143056
0.060176665439823335,0.003326761951700345,0.9880980718876458,-0.0381469725,-0.061035156,0.0228881835,132.29999999999998,218.7,-41.699999999999996,143341
0.05944055944055944,0.0022178413011335633,0.988038562247084,0.076293945,0.045776367,0.015258789,129.9,218.7,-41.1,143627
0.06128082443871918,0.0012937407589945786,0.9854201380623661,-0.0076293945,-0.0686645505,0.061035156,134.7,216.29999999999998,-41.1,143915
0.06220095693779904,0.0003696402168555939,0.9847655320161867,0.137329101,-0.0228881835,0.045776367,127.5,211.5,-40.5,144201
0.06263035210403632,-0.0005544603252833908,0.985182099500119,0.106811523,-0.106811523,-0.0076293945,129.9,209.1,-44.699999999999996,144486
0.060483376272849956,-0.0004928536224741252,0.9895858129016901,0.0228881835,-0.091552734,0.0534057615,134.7,211.5,-42.3,144772
0.05986995460679671,0.00043124691966485955,0.9898238514639371,0.0228881835,-0.076293945,0.076293945,127.5,213.9,-41.699999999999996,145056
0.0588271377745062,0.0006160670280926564,0.9875624851225898,-0.1144409175,-0.076293945,0.0228881835,134.7,216.29999999999998,-41.1,145345
0.060483376272849956,0.0014785608674223755,0.9864318019519163,0.0076293945,0.030517578,0.015258789,134.7,211.5,-41.699999999999996,145630
0.06281437860385229,0.001047313947757516,0.9853011187812426,0.1144409175,0.030517578,0.0228881835,134.7,221.1,-41.699999999999996,145916
0.06465464360201202,0.001971414489896501,0.9890502261366342,-0.0381469725,-0.0381469725,0.091552734,137.1,218.7,-42.9,146204
0.06281437860385229,0.002279448003942829,0.9861342537491073,-0.0228881835,0.0534057615,0.045776367,137.1,218.7,-41.699999999999996,146490
0.06072874493927125,0.0011089206505667817,0.9843489645322542,0.0,-0.076293945,0.015258789,137.1,218.7,-40.5,146775
0.06042203410624463,0.0024026614095613605,0.9860747441085456,0.0839233395,-0.0839233395,0.076293945,129.9,216.29999999999998,-40.5,147060
0.059685928106980736,-6.160670280926565e-05,0.9889312068555106,0.137329101,-0.0228881835,0.0381469725,139.5,211.5,-42.3,147345
0.05735492577597841,-0.0011089206505667817,0.987264936919781,0.030517578,0.0,0.0686645505,134.7,211.5,-43.5,147632
0.060176665439823335,-0.0011089206505667817,0.9844679838133777,0.030517578,-0.1144409175,0.091552734,132.29999999999998,218.7,-42.9,147918
0.0615875352717458,0.0014785608674223755,0.9831587717210188,0.0381469725,-0.030517578,-0.0686645505,129.9,218.7,-41.699999999999996,148205
0.06526806526806526,0.004558896007885658,0.9863722923113545,0.015258789,0.0,0.15258789,134.7,211.5,-41.699999999999996,148490
0.06330511593669488,0.005113356333169049,0.9886336586527017,0.0991821285,-0.0228881835,-0.0076293945,134.7,213.9,-41.699999999999996,148775
0.06146485093853515,0.002279448003942829,0.9877410140442752,0.0381469725,0.030517578,0.122070312,132.29999999999998,213.9,-41.699999999999996,149061
0.059501901607164766,-0.0011089206505667817,0.9883956200904547,-0.030517578,-0.0686645505,0.15258789,129.9,218.7,-42.3,149347
0.057845663108821006,-0.0027106949236076886,0.9851225898595573,0.0228881835,0.0,0.0991821285,134.7,216.29999999999998,-42.9,149632
0.0580910317752423,-0.0017249876786594382,0.9867888597952869,0.0839233395,-0.015258789,0.030517578,127.5,216.29999999999998,-40.5,149918
0.06373451110293216,0.0009857072449482504,0.9889312068555106,-0.0228881835,-0.076293945,-0.045776367,134.7,218.7,-41.1,150204
0.06563611826769722,0.0020330211927057666,0.9894072839800048,-0.0686645505,-0.045776367,0.015258789,137.1,211.5,-41.1,150491
0.0636118267697215,0.006838344011828487,0.9907164960723637,0.0076293945,-0.0076293945,0.0228881835,134.7,213.9,-44.1,150776
0.06171021960495645,0.0021562345983242976,0.9866698405141633,0.0381469725,-0.0839233395,0.1144409175,127.5,221.1,-41.699999999999996,151062
0.05815237394184763,-0.00043124691966485955,0.9894072839800048,0.137329101,-0.0228881835,0.091552734,139.5,216.29999999999998,-41.699999999999996,151347
0.05686418844313581,-0.0017865943814687037,0.9870864079980957,-0.0228881835,0.0228881835,0.045776367,132.29999999999998,213.9,-42.9,151635
0.05729358360937308,-0.0037580088713652046,0.9850035705784337,0.106811523,-0.0534057615,0.0,134.7,221.1,-42.3,151920
0.05962458594037542,-6.160670280926565e-05,0.9860152344679838,0.0381469725,0.0,-0.061035156,137.1,206.7,-41.699999999999996,152206
0.06281437860385229,0.0032651552488910792,0.9861342537491073,-0.076293945,0.061035156,-0.1144409175,134.7,211.5,-41.1,152493
0.06674027726659305,0.007639231148348941,0.9877410140442752,0.0534057615,-0.0381469725,0.015258789,137.1,206.7,-41.1,152779
0.0683351735983315,0.008809758501724987,0.9866698405141633,-0.015258789,-0.0228881835,0.0,132.29999999999998,216.29999999999998,-41.699999999999996,153066
0.059195190774138144,-0.0014169541646131098,0.9863722923113545,0.076293945,0.0,0.15258789,134.7,218.7,-41.1,153352
0.05698687277634646,-0.0062838836865450965,0.9889312068555106,0.0076293945,-0.0228881835,0.076293945,132.29999999999998,213.9,-41.1,153636
0.055391976444608026,-0.006407097092163627,0.9888716972149488,-0.030517578,0.0228881835,-0.030517578,132.29999999999998,216.29999999999998,-42.3,153923
0.059195190774138144,-0.0035731887629374074,0.9876815044037134,0.091552734,-0.015258789,-0.0991821285,137.1,213.9,-42.3,154208
0.06072874493927125,0.0037580088713652046,0.987800523684837,-0.045776367,-0.061035156,-0.0076293945,134.7,211.5,-41.699999999999996,154494
0.06563611826769722,0.006407097092163627,0.9858367055462985,-0.0381469725,-0.0381469725,-0.0534057615,134.7,216.29999999999998,-39.9,154780
0.0666175929333824,0.008994578610152784,0.985955724827422,0.0839233395,-0.015258789,-0.0686645505,137.1,216.29999999999998,-41.1,155067
0.06594282910072384,0.005421389847215377,0.9889907164960724,-0.030517578,0.0228881835,0.122070312,129.9,221.1,-42.3,155352
0.06128082443871918,0.003511582060128142,0.9873839562009046,-0.030517578,0.030517578,0.106811523,132.29999999999998,211.5,-41.1,155639
0.05747761010918906,-0.006037456875308034,0.9887526779338253,0.167846679,-0.0381469725,0.0839233395,134.7,213.9,-41.699999999999996,155924
0.05637345111029322,-0.0065303104977821585,0.9895858129016901,0.061035156,-0.045776367,0.0228881835,132.29999999999998,221.1,-43.5,156209
0.057722978775610355,6.160670280926565e-05,0.9886336586527017,0.0534057615,-0.1296997065,-0.0076293945,129.9,213.9,-41.699999999999996,156495
0.06189424610477242,0.0054829965500246425,0.9875624851225898,0.0686645505,0.015258789,-0.015258789,134.7,213.9,-41.699999999999996,156782
0.06582014476751319,0.0080704780680138,0.9870268983575339,0.0686645505,-0.0228881835,-0.1144409175,132.29999999999998,216.29999999999998,-42.9,157066
0.06606551343393449,0.004558896007885658,0.9873839562009046,0.0076293945,-0.0534057615,0.030517578,137.1,218.7,-41.699999999999996,157352
0.06373451110293216,0.0054829965500246425,0.9849440609378719,0.1144409175,-0.061035156,0.0839233395,134.7,211.5,-42.3,157638
0.05894982210771684,6.160670280926565e-05,0.9880980718876458,0.0534057615,0.015258789,0.1296997065,137.1,218.7,-42.9,157932
0.055944055944055944,-0.00425086249383933,0.9879195429659605,-0.0228881835,0.0,0.0534057615,134.7,218.7,-41.1,158222
0.059195190774138144,-0.0023410547067520947,0.9880980718876458,-0.0228881835,-0.045776367,0.0381469725,139.5,221.1,-41.699999999999996,158508
0.062139614771193716,0.002957121734844751,0.9881575815282075,0.0381469725,-0.1296997065,-0.0839233395,132.29999999999998,211.5,-40.5,158794
0.06471598576861735,0.006160670280926565,0.9885741490121399,0.0076293945,-0.0686645505,-0.091552734,129.9,211.5,-42.9,159081
0.06502269660164398,0.008008871365204534,0.9894667936205666,-0.0534057615,0.0228881835,0.0,129.9,216.29999999999998,-40.5,159365
0.06520672310145995,0.005667816658452439,0.9881575815282075,-0.061035156,-0.0534057615,0.0534057615,137.1,213.9,-41.699999999999996,159651
0.060851429272481904,0.0024642681123706258,0.9874434658414664,0.015258789,0.015258789,0.1144409175,137.1,213.9,-41.699999999999996,159937
0.05845908477487425,-0.001971414489896501,0.985955724827422,0.0,0.0076293945,0.0534057615,129.9,213.9,-41.699999999999996,160223
0.05698687277634646,-0.0049285362247412515,0.9885741490121399,0.030517578,-0.015258789,0.0381469725,137.1,223.5,-41.1,160509
0.059992638940007365,-0.0006776737309019222,0.9865508212330397,0.0076293945,-0.106811523,-0.0381469725,134.7,216.29999999999998,-42.3,160795
0.061955588271377746,0.005667816658452439,0.9879195429659605,0.0686645505,0.076293945,-0.0228881835,125.1,213.9,-42.9,161080
0.06674027726659305,0.008255298176441597,0.9883956200904547,0.1449584955,-0.0839233395,-0.0228881835,132.29999999999998,216.29999999999998,-40.5,161365
0.06575880260090787,0.008316904879250863,0.9866103308736015,0.0,-0.045776367,0.0228881835,137.1,216.29999999999998,-43.5,161651
0.06293706293706294,0.004189255791030064,0.9845870030945013,-0.061035156,-0.030517578,0.076293945,134.7,216.29999999999998,-41.699999999999996,161937
0.05901116427432217,0.00043124691966485955,0.9855986669840514,0.0686645505,-0.122070312,0.1602172845,132.29999999999998,211.5,-42.9,162222
0.05845908477487425,-0.0012321340561853129,0.9892882646988812,0.0686645505,-0.030517578,0.0686645505,134.7,211.5,-42.3,162508
0.05668016194331984,-0.0032651552488910792,0.9897643418233754,0.015258789,0.0076293945,0.061035156,132.29999999999998,221.1,-41.699999999999996,162792
0.061158140105508525,0.0032035485460818135,0.9845274934539395,0.0076293945,-0.1296997065,-0.076293945,129.9,218.7,-40.5,163080
0.0641025641025641,0.006099063578117299,0.9858367055462985,0.045776367,-0.015258789,0.0,132.29999999999998,216.29999999999998,-42.3,163369
0.06490001226843332,0.007207984228684081,0.9870268983575339,0.091552734,-0.061035156,0.0,134.7,209.1,-40.5,163656
0.0641025641025641,0.007577624445539674,0.9853011187812426,0.0686645505,0.0,-0.045776367,129.9,221.1,-41.699999999999996,163940
0.06177156177156177,0.0030803351404632825,0.9878600333253987,0.076293945,0.0,0.1144409175,137.1,216.29999999999998,-41.699999999999996,164228
0.0620782726045884,-0.0014169541646131098,0.9853606284218044,-0.0228881835,0.0,0.183105468,129.9,216.29999999999998,-41.699999999999996,164514
0.05864311127469022,-0.0033883686545096107,0.9862532730302309,-0.0228881835,0.0,0.030517578,129.9,216.29999999999998,-42.9,164800
0.057722978775610355,-0.0009241005421389847,0.9889312068555106,0.0228881835,-0.0534057615,0.0686645505,129.9,211.5,-40.5,165084
0.059379217273954114,-0.0006776737309019222,0.9902404189478695,0.1907348625,-0.0076293945,-0.030517578,127.5,218.7,-39.3,165370
0.0641025641025641,0.0028339083292262196,0.9867888597952869,0.0686645505,-0.0839233395,0.0,137.1,216.29999999999998,-42.3,165655
0.06483867010182799,0.006407097092163627,0.9871459176386574,0.091552734,0.061035156,0.0534057615,132.29999999999998,216.29999999999998,-41.1,165941
0.06618819776714513,0.004189255791030064,0.9863722923113545,0.0381469725,0.015258789,-0.0076293945,134.7,206.7,-42.3,166226
0.06140350877192982,-0.0008624938393297191,0.988038562247084,0.030517578,-0.0534057615,0.137329101,137.1,216.29999999999998,-41.1,166512
0.05661881977671451,-0.0014785608674223755,0.9876219947631516,0.076293945,-0.0381469725,0.137329101,132.29999999999998,216.29999999999998,-41.1,166796
0.05551466077781867,-0.002587481517989157,0.985182099500119,0.0839233395,-0.0381469725,0.0686645505,132.29999999999998,218.7,-41.1,167084
0.05827505827505827,-0.0009241005421389847,0.9882766008093311,0.0686645505,-0.076293945,0.0,134.7,211.5,-42.3,167368
0.06072874493927125,-0.0003080335140463282,0.9861937633896691,0.015258789,0.061035156,-0.0228881835,137.1,218.7,-41.699999999999996,167653
0.06342780026990553,0.003511582060128142,0.9867888597952869,0.0076293945,-0.0686645505,-0.015258789,134.7,221.1,-41.1,167938
0.06201693043798307,0.0032651552488910792,0.9872054272792192,0.091552734,-0.061035156,-0.091552734,132.29999999999998,216.29999999999998,-39.9,168224
0.059992638940007365,0.002587481517989157,0.9882766008093311,0.0381469725,0.030517578,0.0381469725,129.9,213.9,-42.3,168510
0.061158140105508525,0.0003080335140463282,0.9891692454177576,-0.0686645505,-0.0381469725,0.0381469725,129.9,216.29999999999998,-39.3,168795
0.05747761010918906,-0.0032651552488910792,0.9879790526065223,0.0991821285,0.0,0.030517578,129.9,223.5,-39.9,169081
0.058520426941479575,-0.0019098077870872351,0.988812187574387,-0.0381469725,0.045776367,0.030517578,139.5,211.5,-40.5,169365
0.05894982210771684,-6.160670280926565e-05,0.9860747441085456,0.061035156,0.122070312,0.0534057615,137.1,216.29999999999998,-41.1,169650
0.06146485093853515,0.0012321340561853129,0.9865508212330397,0.030517578,-0.0381469725,-0.061035156,139.5,213.9,-42.3,169936
0.06324377377008956,0.00425086249383933,0.9855986669840514,0.0991821285,-0.1449584955,-0.045776367,134.7,218.7,-42.3,170220
0.06250766777082567,0.004374075899457861,0.9870864079980957,0.0381469725,0.015258789,-0.0076293945,134.7,221.1,-42.3,170506
0.06072874493927125,-0.0008008871365204534,0.985955724827422,0.045776367,0.0,0.0839233395,137.1,216.29999999999998,-41.1,170793
0.05974727027358606,-0.0006160670280926564,0.9864318019519163,0.061035156,0.0076293945,0.1296997065,139.5,206.7,-40.5,171081
0.05931787510734879,-0.0004928536224741252,0.9853606284218044,0.030517578,-0.1144409175,0.0839233395,137.1,216.29999999999998,-42.3,171365
0.058704453441295545,-0.0020330211927057666,0.9896453225422518,0.061035156,-0.061035156,0.0686645505,127.5,209.1,-43.5,171651
0.05974727027358606,-0.002094627895515032,0.9889907164960724,-0.0228881835,0.0,0.0381469725,129.9,218.7,-40.5,171935
0.059501901607164766,0.002094627895515032,0.9850035705784337,0.0,0.045776367,-0.0381469725,134.7,211.5,-41.1,172223
0.06330511593669488,0.002587481517989157,0.9837538681266366,0.045776367,0.015258789,-0.0076293945,132.29999999999998,211.5,-40.5,172507
0.06588148693411851,0.004805322819122721,0.9886931682932635,-0.030517578,-0.061035156,0.0,132.29999999999998,218.7,-41.699999999999996,172792
0.061158140105508525,0.0025258748151798915,0.9895858129016901,0.0076293945,-0.0381469725,0.0381469725,132.29999999999998,211.5,-42.9,173076
0.05931787510734879,-0.0003080335140463282,0.9905379671506784,0.0076293945,0.0381469725,0.0228881835,134.7,218.7,-42.9,173361
0.055944055944055944,-0.0008008871365204534,0.9902404189478695,0.0534057615,-0.015258789,-0.045776367,134.7,206.7,-39.3,173648
0.05888847994111152,-0.0003696402168555939,0.9860152344679838,0.106811523,-0.045776367,-0.0076293945,129.9,211.5,-41.1,173934
0.06060606060606061,0.0002464268112370626,0.985182099500119,0.0839233395,0.0076293945,0.061035156,134.7,218.7,-42.3,174218
0.06312108943687891,0.0025258748151798915,0.9870864079980957,0.0991821285,0.0381469725,0.015258789,137.1,221.1,-41.1,174503
0.06330511593669488,0.0034499753573188764,0.9864318019519163,0.0839233395,-0.0076293945,0.106811523,134.7,213.9,-41.699999999999996,174790
0.05901116427432217,0.0015401675702316413,0.9866698405141633,0.0839233395,-0.0381469725,0.015258789,132.29999999999998,218.7,-41.699999999999996,175075
0.05907250644092749,-0.0017865943814687037,0.9864913115924779,0.045776367,-0.045776367,-0.045776367,132.29999999999998,213.9,-41.1,175360
0.060483376272849956,-0.0008008871365204534,0.985955724827422,0.015258789,0.015258789,-0.030517578,132.29999999999998,225.9,-40.5,175646
0.06171021960495645,0.0006160670280926564,0.9872054272792192,0.076293945,0.0076293945,-0.015258789,137.1,211.5,-40.5,175931
0.06152619310514047,0.0007392804337111878,0.9892882646988812,0.0686645505,0.045776367,0.0381469725,127.5,216.29999999999998,-40.5,176218
0.06324377377008956,0.003881222276983736,0.9875624851225898,0.030517578,0.0076293945,0.0076293945,129.9,216.29999999999998,-42.9,176503
0.06416390626916943,0.004435682602267127,0.9900618900261843,0.030517578,0.015258789,-0.030517578,134.7,213.9,-41.1,176789
0.06391853760274813,0.0037580088713652046,0.9876219947631516,0.1144409175,-0.030517578,-0.0076293945,129.9,213.9,-40.5,177072
0.06293706293706294,0.0024642681123706258,0.9875624851225898,0.1449584955,-0.106811523,0.076293945,129.9,218.7,-42.9,177360
0.058397742608268924,-0.0006776737309019222,0.9870864079980957,0.015258789,0.061035156,0.0686645505,137.1,221.1,-41.699999999999996,177644
0.0588271377745062,0.0007392804337111878,0.9886931682932635,0.167846679,0.0,-0.0228881835,132.29999999999998,213.9,-42.3,177929
0.0610967979389032,-0.0007392804337111878,0.9873839562009046,0.0534057615,-0.0076293945,-0.0534057615,134.7,209.1,-41.699999999999996,178213
0.06226229910440437,0.0038196155741744703,0.9846465127350631,-0.0686645505,-0.0076293945,-0.030517578,134.7,221.1,-41.1,178500
0.06312108943687891,0.0030803351404632825,0.9867888597952869,0.0228881835,0.0534057615,-0.030517578,134.7,211.5,-40.5,178787
0.0633664581033002,0.0032651552488910792,0.9885741490121399,-0.0686645505,0.0076293945,-0.0381469725,134.7,216.29999999999998,-40.5,179072
0.06103545577229788,0.0013553474618038443,0.9862532730302309,-0.0076293945,-0.0686645505,-0.0076293945,134.7,211.5,-41.699999999999996,179358
0.06023800760642866,-0.0004928536224741252,0.9845274934539395,-0.045776367,-0.0534057615,0.0686645505,132.29999999999998,211.5,-42.3,179644
0.05913384860753282,-0.0009857072449482504,0.9879790526065223,0.106811523,0.0,0.0839233395,134.7,213.9,-40.5,179928
0.06042203410624463,-0.002279448003942829,0.989347774339443,0.1449584955,-0.015258789,0.030517578,134.7,218.7,-41.1,180214
0.060974113605692555,0.0017249876786594382,0.987264936919781,0.0534057615,-0.0686645505,-0.0381469725,134.7,225.9,-41.1,180498
0.06287572077045761,0.0011089206505667817,0.987502975482028,0.0076293945,-0.0534057615,0.0076293945,132.29999999999998,221.1,-41.699999999999996,180783
0.06373451110293216,0.0046821094135041895,0.9878600333253987,-0.061035156,-0.0381469725,-0.0076293945,137.1,213.9,-41.699999999999996,181070
0.06348914243651085,0.0038196155741744703,0.9863722923113545,0.030517578,-0.030517578,0.045776367,127.5,213.9,-41.1,181359
0.06312108943687891,0.001971414489896501,0.9865508212330397,-0.061035156,-0.0076293945,0.0534057615,137.1,216.29999999999998,-41.1,181644
0.06060606060606061,-0.0003696402168555939,0.988038562247084,0.0381469725,0.0,0.1449584955,134.7,213.9,-41.699999999999996,181929
0.05962458594037542,-0.0011705273533760474,0.9864318019519163,-0.015258789,-0.15258789,0.091552734,137.1,211.5,-41.699999999999996,182214
0.058704453441295545,-0.0016633809758501725,0.9871459176386574,-0.015258789,-0.076293945,-0.015258789,134.7,216.29999999999998,-39.9,182500
0.061158140105508525,0.0013553474618038443,0.9883361104498929,0.061035156,-0.0534057615,0.0686645505,137.1,216.29999999999998,-40.5,182786
0.06330511593669488,0.0027106949236076886,0.9878600333253987,-0.015258789,0.076293945,0.0,137.1,216.29999999999998,-39.9,183071
0.06496135443503864,0.0015401675702316413,0.9861342537491073,0.0534057615,-0.030517578,-0.0381469725,137.1,213.9,-42.3,183356
0.062139614771193716,0.0038196155741744703,0.9865508212330397,0.076293945,-0.0991821285,0.015258789,132.29999999999998,218.7,-40.5,183642
0.06318243160348423,0.0016017742730409068,0.987264936919781,-0.0076293945,-0.030517578,0.061035156,137.1,213.9,-41.699999999999996,183930
0.061158140105508525,0.0008008871365204534,0.9869673887169722,-0.015258789,-0.045776367,0.030517578,134.7,211.5,-39.9,184216
0.058029689608636977,-0.003018728437654017,0.9887526779338253,-0.0228881835,0.0,0.0076293945,132.29999999999998,213.9,-41.699999999999996,184501
0.059195190774138144,-0.0006160670280926564,0.9876219947631516,-0.0076293945,0.0076293945,-0.0076293945,132.29999999999998,213.9,-40.5,184787
0.05766163660900503,-0.0006160670280926564,0.9848845512973101,0.15258789,-0.0228881835,-0.0534057615,132.29999999999998,216.29999999999998,-40.5,185072
0.060360691939639305,0.0009241005421389847,0.985182099500119,0.137329101,-0.030517578,-0.137329101,139.5,218.7,-40.5,185359
0.06293706293706294,0.0032651552488910792,0.9870864079980957,0.015258789,-0.0076293945,-0.061035156,137.1,213.9,-42.9,185644
0.06318243160348423,0.0032651552488910792,0.9887526779338253,0.0076293945,-0.0228881835,0.0686645505,129.9,213.9,-41.1,185929
0.05913384860753282,0.0008624938393297191,0.9869078790764104,0.0076293945,0.015258789,0.061035156,137.1,213.9,-39.9,186213
0.05986995460679671,0.0005544603252833908,0.9878600333253987,0.0534057615,-0.0686645505,0.0228881835,132.29999999999998,218.7,-41.1,186502
0.05778432094221568,-0.0020330211927057666,0.9899428707450607,0.076293945,0.015258789,0.0686645505,134.7,211.5,-41.699999999999996,186787
0.060360691939639305,-0.0015401675702316413,0.989347774339443,0.0686645505,0.0381469725,-0.0076293945,134.7,211.5,-42.9,187073
0.06355048460311619,0.002587481517989157,0.9892882646988812,0.0,-0.045776367,-0.015258789,134.7,223.5,-43.5,187358
0.06220095693779904,0.0005544603252833908,0.9868483694358486,0.0,0.0076293945,0.076293945,134.7,221.1,-40.5,187643
0.059685928106980736,0.0018482010842779694,0.9870268983575339,0.137329101,-0.0839233395,-0.0228881835,134.7,211.5,-41.1,187930
0.06079008710587658,-0.0009857072449482504,0.9847655320161867,-0.0228881835,-0.0534057615,0.076293945,127.5,218.7,-40.5,188216
0.06201693043798307,0.0003080335140463282,0.9891692454177576,-0.015258789,0.0534057615,0.0228881835,137.1,216.29999999999998,-42.9,188500
0.06103545577229788,0.0003080335140463282,0.9892287550583194,0.1144409175,0.0228881835,-0.076293945,132.29999999999998,211.5,-42.3,188786
0.06256900993743099,-0.0012937407589945786,0.9856581766246132,0.0686645505,-0.0839233395,-0.045776367,137.1,213.9,-41.699999999999996,189073
0.06281437860385229,0.0004928536224741252,0.987502975482028,0.0,-0.061035156,-0.015258789,132.29999999999998,211.5,-41.699999999999996,189360
0.060851429272481904,0.0027106949236076886,0.9888716972149488,0.045776367,0.0839233395,0.061035156,129.9,218.7,-42.9,189645
0.06226229910440437,0.0027106949236076886,0.9892287550583194,0.1296997065,-0.0686645505,0.0381469725,129.9,218.7,-41.699999999999996,189933
0.06103545577229788,0.0017865943814687037,0.9889907164960724,-0.0534057615,-0.061035156,0.0991821285,132.29999999999998,216.29999999999998,-41.1,190219
0.061158140105508525,-0.0003080335140463282,0.9881575815282075,0.0686645505,-0.061035156,0.076293945,134.7,216.29999999999998,-41.699999999999996,190506
0.0585817691080849,-0.0021562345983242976,0.9869673887169722,0.076293945,-0.045776367,0.015258789,137.1,216.29999999999998,-41.1,190791
0.06005398110661268,0.0004928536224741252,0.9894072839800048,0.0381469725,-0.106811523,-0.015258789,129.9,213.9,-41.1,191077
0.06054471843945528,0.003511582060128142,0.9881575815282075,0.061035156,-0.045776367,0.061035156,127.5,213.9,-43.5,191361
0.0613421666053245,0.0016017742730409068,0.9866103308736015,0.015258789,-0.0534057615,0.0228881835,129.9,213.9,-40.5,191653
0.06060606060606061,0.0023410547067520947,0.9873839562009046,0.045776367,-0.0839233395,0.061035156,132.29999999999998,211.5,-41.1,191938
0.06256900993743099,-0.0006160670280926564,0.985955724827422,0.0076293945,-0.0381469725,0.0686645505,129.9,213.9,-42.9,192224
0.06189424610477242,0.0,0.9853606284218044,-0.076293945,-0.0076293945,0.0076293945,137.1,221.1,-40.5,192508
0.06091277143908723,0.0015401675702316413,0.9870268983575339,0.0076293945,-0.0381469725,0.0381469725,134.7,218.7,-41.1,192795
0.06103545577229788,0.002094627895515032,0.9877410140442752,-0.030517578,0.045776367,-0.015258789,127.5,216.29999999999998,-41.1,193080
0.06060606060606061,0.0011705273533760474,0.9866698405141633,-0.0076293945,-0.030517578,-0.0228881835,137.1,211.5,-40.5,193365
0.060974113605692555,0.0009241005421389847,0.9860747441085456,-0.0076293945,-0.0534057615,-0.0534057615,132.29999999999998,211.5,-41.1,193650
0.060851429272481904,-0.00018482010842779694,0.9864318019519163,-0.030517578,0.0686645505,-0.0228881835,132.29999999999998,206.7,-42.3,193936
0.060851429272481904,0.0003696402168555939,0.987502975482028,-0.045776367,0.061035156,-0.015258789,134.7,216.29999999999998,-42.3,194222
0.06121948227211385,0.0018482010842779694,0.9892882646988812,0.15258789,-0.045776367,-0.0534057615,137.1,211.5,-41.699999999999996,194510
0.06079008710587658,0.0028339083292262196,0.9867888597952869,0.0991821285,-0.076293945,-0.076293945,134.7,211.5,-42.9,194795
0.060360691939639305,0.0034499753573188764,0.9879790526065223,-0.0381469725,-0.061035156,0.0076293945,132.29999999999998,213.9,-41.1,195080
0.059992638940007365,0.0008624938393297191,0.9863722923113545,0.015258789,-0.1144409175,-0.0228881835,132.29999999999998,216.29999999999998,-42.3,195365
0.06140350877192982,-0.0012937407589945786,0.985955724827422,0.061035156,-0.0991821285,-0.061035156,129.9,218.7,-42.9,195652
0.06293706293706294,-0.0017865943814687037,0.9882766008093311,0.1296997065,0.0076293945,0.015258789,137.1,213.9,-39.9,195937
0.06152619310514047,-0.0006776737309019222,0.9864318019519163,0.0534057615,-0.0228881835,0.1449584955,132.29999999999998,213.9,-40.5,196222
0.05986995460679671,0.0014785608674223755,0.9873244465603428,0.030517578,-0.1296997065,0.0228881835,134.7,218.7,-42.3,196506
0.06152619310514047,0.0014169541646131098,0.9872054272792192,-0.030517578,-0.045776367,-0.015258789,134.7,213.9,-42.3,196793
0.0615875352717458,0.0007392804337111878,0.9890502261366342,-0.076293945,-0.0076293945,-0.0534057615,129.9,209.1,-43.5,197078
0.06023800760642866,0.001047313947757516,0.9868483694358486,0.015258789,-0.0534057615,-0.015258789,129.9,213.9,-40.5,197364
0.062446325604220344,0.003696402168555939,0.9875624851225898,-0.0076293945,0.015258789,0.030517578,129.9,221.1,-41.699999999999996,197648
0.06066740277266593,0.0007392804337111878,0.987502975482028,0.0534057615,-0.030517578,-0.030517578,132.29999999999998,213.9,-41.699999999999996,197934
0.06054471843945528,0.002279448003942829,0.9876219947631516,0.076293945,-0.106811523,0.0076293945,137.1,211.5,-39.9,198220
0.06171021960495645,0.0022178413011335633,0.9876815044037134,0.045776367,-0.091552734,0.0076293945,139.5,211.5,-41.699999999999996,198507
0.061648877438351124,0.0007392804337111878,0.9884551297310165,-0.076293945,0.0228881835,0.0381469725,137.1,218.7,-41.1,198791
0.0610967979389032,0.0008624938393297191,0.9885741490121399,0.1449584955,0.0076293945,0.0991821285,134.7,218.7,-41.1,199076
0.06072874493927125,0.002957121734844751,0.9882766008093311,0.1144409175,-0.0534057615,0.061035156,137.1,218.7,-41.1,199363
0.06263035210403632,0.0014785608674223755,0.9892882646988812,0.0076293945,-0.0839233395,0.030517578,129.9,216.29999999999998,-40.5,199650
0.06256900993743099,0.0003080335140463282,0.9881575815282075,0.076293945,-0.091552734,0.045776367,132.29999999999998,221.1,-41.699999999999996,199935
0.06103545577229788,0.0014169541646131098,0.9884551297310165,0.061035156,-0.0381469725,-0.015258789,132.29999999999998,216.29999999999998,-41.699999999999996,200221
0.05986995460679671,0.0006160670280926564,0.9876219947631516,0.0228881835,-0.0534057615,-0.0076293945,132.29999999999998,216.29999999999998,-41.1,200506
0.059501901607164766,0.0012321340561853129,0.985955724827422,0.0534057615,-0.076293945,0.0076293945,134.7,211.5,-42.9,200793
0.05986995460679671,0.001971414489896501,0.9875624851225898,-0.030517578,-0.0686645505,-0.045776367,127.5,209.1,-42.3,201078
0.06220095693779904,0.003634795465746673,0.9876219947631516,-0.030517578,0.0076293945,-0.061035156,139.5,218.7,-40.5,201364
0.06250766777082567,0.001047313947757516,0.9866698405141633,-0.0686645505,0.0228881835,0.0534057615,132.29999999999998,211.5,-41.699999999999996,201648
0.06287572077045761,0.0018482010842779694,0.987264936919781,0.0686645505,-0.030517578,-0.015258789,137.1,218.7,-39.3,201938
0.06091277143908723,0.0032651552488910792,0.9871459176386574,0.045776367,0.0076293945,-0.0076293945,132.29999999999998,221.1,-42.3,202223
0.061648877438351124,0.0006776737309019222,0.9866698405141633,0.0381469725,-0.1144409175,0.1144409175,127.5,218.7,-39.9,202508
0.061955588271377746,0.0014169541646131098,0.9902404189478695,0.0839233395,-0.0686645505,0.045776367,134.7,211.5,-41.1,202793
0.06324377377008956,0.00043124691966485955,0.988812187574387,0.0228881835,-0.045776367,-0.0381469725,127.5,216.29999999999998,-39.9,203078
0.06287572077045761,0.0003080335140463282,0.9866698405141633,0.0076293945,0.0,-0.122070312,127.5,213.9,-40.5,203364
0.0610967979389032,0.0003080335140463282,0.9853606284218044,0.0228881835,-0.030517578,-0.0381469725,132.29999999999998,209.1,-41.699999999999996,203649
0.06152619310514047,0.0016633809758501725,0.9846465127350631,0.0381469725,-0.061035156,0.0534057615,127.5,213.9,-39.3,203933
0.062446325604220344,0.0013553474618038443,0.9860152344679838,0.106811523,-0.0076293945,0.030517578,132.29999999999998,213.9,-41.699999999999996,204219
0.061955588271377746,0.003696402168555939,0.9883956200904547,0.15258789,-0.0381469725,0.0,132.29999999999998,213.9,-42.3,204504
0.05956324377377009,0.0003080335140463282,0.9873244465603428,0.030517578,-0.122070312,-0.0839233395,129.9,221.1,-41.699999999999996,204791
0.06005398110661268,0.0002464268112370626,0.9866103308736015,-0.045776367,0.0,0.091552734,134.7,216.29999999999998,-42.9,205076
0.06042203410624463,0.0012321340561853129,0.9874434658414664,0.0076293945,0.0381469725,0.045776367,127.5,216.29999999999998,-40.5,205362
0.06281437860385229,0.0006160670280926564,0.9902404189478695,0.030517578,0.076293945,0.0381469725,132.29999999999998,218.7,-40.5,205647
0.06447061710219605,0.0003080335140463282,0.9858962151868603,-0.015258789,0.045776367,-0.0381469725,137.1,216.29999999999998,-42.9,205933
0.061648877438351124,0.0027106949236076886,0.9861342537491073,0.0076293945,-0.0534057615,-0.0534057615,132.29999999999998,221.1,-41.699999999999996,206218
0.060974113605692555,0.0016633809758501725,0.9880980718876458,-0.0534057615,-0.0381469725,-0.0381469725,132.29999999999998,216.29999999999998,-40.5,206504
0.060974113605692555,0.0006776737309019222,0.9875624851225898,0.015258789,0.015258789,0.106811523,139.5,213.9,-42.3,206789
0.05907250644092749,0.0008624938393297191,0.987264936919781,-0.0381469725,-0.0381469725,0.0381469725,132.29999999999998,211.5,-41.1,207076
0.060483376272849956,0.0012321340561853129,0.9879195429659605,0.076293945,-0.061035156,0.076293945,132.29999999999998,221.1,-42.3,207362
0.06171021960495645,0.0008624938393297191,0.9860152344679838,0.030517578,-0.030517578,0.076293945,137.1,221.1,-41.699999999999996,207648
0.06269169427064164,0.002587481517989157,0.985717686265175,-0.0381469725,-0.0991821285,-0.030517578,132.29999999999998,213.9,-39.9,207933
0.062446325604220344,0.0027106949236076886,0.9857771959057368,-0.0839233395,-0.106811523,0.0,137.1,211.5,-40.5,208218
0.0615875352717458,0.0018482010842779694,0.9878600333253987,-0.061035156,-0.0686645505,-0.0076293945,134.7,211.5,-41.1,208503
0.0613421666053245,-0.00018482010842779694,0.9889312068555106,-0.0381469725,0.030517578,0.0076293945,132.29999999999998,218.7,-39.9,208788
0.06281437860385229,-0.0003080335140463282,0.9889312068555106,0.137329101,0.0,0.030517578,141.9,211.5,-41.699999999999996,209072
0.06312108943687891,0.0005544603252833908,0.987800523684837,0.1144409175,0.0228881835,0.045776367,129.9,213.9,-41.699999999999996,209357
0.06152619310514047,0.0022178413011335633,0.9883361104498929,0.0,-0.0686645505,-0.0228881835,129.9,216.29999999999998,-42.9,209642
0.06250766777082567,0.002649088220798423,0.9873244465603428,-0.0228881835,0.0686645505,-0.015258789,127.5,216.29999999999998,-42.3,209929
0.0615875352717458,0.0035731887629374074,0.9862532730302309,0.0686645505,-0.015258789,0.015258789,129.9,211.5,-41.1,210214
0.06054471843945528,0.003018728437654017,0.9885741490121399,0.045776367,-0.0381469725,0.1449584955,129.9,216.29999999999998,-41.699999999999996,210500
0.06054471843945528,0.0013553474618038443,0.9861937633896691,0.045776367,0.030517578,0.0686645505,132.29999999999998,211.5,-41.699999999999996,210785
0.05944055944055944,0.0013553474618038443,0.9867888597952869,0.091552734,-0.061035156,0.030517578,132.29999999999998,211.5,-43.5,211071
0.06079008710587658,0.0003080335140463282,0.9889312068555106,0.0686645505,-0.0381469725,0.0228881835,137.1,218.7,-41.1,211355
0.061955588271377746,-0.0007392804337111878,0.9861342537491073,0.091552734,-0.061035156,0.0228881835,134.7,211.5,-39.3,211640
0.059992638940007365,0.0013553474618038443,0.9860152344679838,0.106811523,-0.0686645505,0.0,141.9,206.7,-41.1,211924
0.06079008710587658,-0.0003696402168555939,0.9860747441085456,-0.015258789,-0.0534057615,-0.015258789,134.7,213.9,-41.699999999999996,212210
0.06140350877192982,0.0016633809758501725,0.9879790526065223,0.0839233395,-0.0839233395,-0.0381469725,132.29999999999998,211.5,-42.3,212496
0.06293706293706294,0.0024026614095613605,0.9882766008093311,0.030517578,-0.015258789,0.030517578,132.29999999999998,216.29999999999998,-41.1,212782
0.06189424610477242,0.0006776737309019222,0.9879790526065223,0.1144409175,-0.015258789,0.030517578,127.5,213.9,-39.9,213067
0.062446325604220344,0.00018482010842779694,0.990656986431802,0.0534057615,-0.0534057615,0.061035156,129.9,211.5,-40.5,213352
0.060299349773033986,0.0014169541646131098,0.9889312068555106,0.1144409175,0.0,0.045776367,132.29999999999998,213.9,-41.1,213639
0.06054471843945528,0.0009241005421389847,0.9862532730302309,0.0686645505,-0.030517578,0.076293945,134.7,221.1,-42.3,213924
0.06171021960495645,0.0012321340561853129,0.9867888597952869,-0.030517578,-0.0076293945,-0.0076293945,134.7,213.9,-42.3,214208
0.06189424610477242,0.0018482010842779694,0.9879790526065223,-0.0381469725,0.0,0.0076293945,134.7,216.29999999999998,-44.1,214493
0.06299840510366826,0.0003696402168555939,0.987502975482028,-0.0076293945,-0.0076293945,0.091552734,129.9,213.9,-41.699999999999996,214777
0.06066740277266593,0.0005544603252833908,0.9867293501547251,0.045776367,0.015258789,-0.1144409175,132.29999999999998,211.5,-41.699999999999996,215065
0.06226229910440437,-0.0006160670280926564,0.985955724827422,0.0839233395,-0.0228881835,-0.076293945,132.29999999999998,213.9,-42.3,215351
0.06128082443871918,0.0028339083292262196,0.9872054272792192,0.0228881835,0.0228881835,-0.045776367,139.5,211.5,-41.1,215638
0.06171021960495645,0.00018482010842779694,0.9864318019519163,0.0991821285,-0.0381469725,-0.015258789,132.29999999999998,209.1,-41.699999999999996,215924
0.06177156177156177,0.0037580088713652046,0.9858962151868603,-0.015258789,-0.0686645505,0.091552734,139.5,216.29999999999998,-42.3,216212
0.06121948227211385,0.002587481517989157,0.9870268983575339,-0.061035156,-0.0228881835,0.045776367,132.29999999999998,213.9,-39.3,216497
0.06103545577229788,0.001971414489896501,0.9883956200904547,0.0686645505,-0.0381469725,0.0381469725,132.29999999999998,211.5,-42.9,216782
0.062446325604220344,0.0028955150320354854,0.9870268983575339,0.0534057615,0.0381469725,0.0991821285,129.9,216.29999999999998,-41.699999999999996,217066
0.0620782726045884,0.0,0.9873244465603428,0.030517578,-0.0076293945,0.061035156,134.7,216.29999999999998,-42.3,217352
0.06066740277266593,-0.0001232134056185313,0.9864913115924779,0.137329101,0.0076293945,-0.0381469725,137.1,216.29999999999998,-42.3,217639
0.06220095693779904,0.001971414489896501,0.9864318019519163,0.1449584955,0.0,-0.0686645505,134.7,218.7,-40.5,217926
0.061832903938167094,0.0003080335140463282,0.9887526779338253,0.0991821285,-0.0381469725,-0.045776367,132.29999999999998,216.29999999999998,-41.699999999999996,218211
0.0613421666053245,0.0008008871365204534,0.9900023803856225,0.0991821285,0.0076293945,0.045776367,132.29999999999998,206.7,-41.699999999999996,218498
0.060299349773033986,0.0024026614095613605,0.9877410140442752,0.091552734,-0.0381469725,0.076293945,132.29999999999998,211.5,-41.1,218785
0.0613421666053245,-6.160670280926565e-05,0.9883361104498929,0.015258789,-0.061035156,0.0534057615,141.9,213.9,-42.3,219070
0.06189424610477242,0.0006160670280926564,0.9855986669840514,0.091552734,-0.061035156,-0.0228881835,134.7,213.9,-43.5,219355
0.06072874493927125,-0.0006776737309019222,0.9886931682932635,-0.0686645505,-0.045776367,-0.015258789,137.1,221.1,-41.1,219640
0.06440927493559072,0.003511582060128142,0.9858367055462985,-0.015258789,0.0,-0.0228881835,134.7,218.7,-41.699999999999996,219924
0.0615875352717458,0.00018482010842779694,0.9853011187812426,-0.091552734,-0.0686645505,-0.045776367,134.7,218.7,-41.1,220211
0.06103545577229788,0.0003080335140463282,0.9877410140442752,-0.061035156,0.0,-0.0228881835,134.7,218.7,-41.1,220497
0.061955588271377746,0.0004928536224741252,0.9882170911687693,-0.030517578,0.0228881835,0.091552734,132.29999999999998,211.5,-41.699999999999996,220783
0.061648877438351124,0.00018482010842779694,0.988038562247084,-0.030517578,-0.076293945,0.0228881835,129.9,213.9,-41.699999999999996,221068
0.059195190774138144,0.0022178413011335633,0.9869078790764104,-0.061035156,-0.0991821285,0.0381469725,139.5,213.9,-40.5,221355
0.060299349773033986,-6.160670280926565e-05,0.9884551297310165,-0.015258789,-0.015258789,-0.015258789,132.29999999999998,216.29999999999998,-40.5,221640
0.05931787510734879,0.0017865943814687037,0.9876815044037134,-0.0381469725,-0.0076293945,-0.0228881835,139.5,218.7,-42.3,221926
0.061648877438351124,0.001047313947757516,0.9884551297310165,0.0381469725,0.0076293945,-0.076293945,132.29999999999998,211.5,-41.1,222210
0.061955588271377746,0.0020330211927057666,0.9864318019519163,-0.061035156,0.0,-0.0228881835,134.7,221.1,-42.3,222495
0.061832903938167094,0.0024026614095613605,0.985182099500119,0.091552734,-0.015258789,0.0534057615,132.29999999999998,209.1,-41.1,222782
0.06275303643724696,0.0006776737309019222,0.9879195429659605,0.122070312,-0.0686645505,-0.076293945,134.7,216.29999999999998,-42.3,223068
0.061832903938167094,-0.0001232134056185313,0.9857771959057368,0.030517578,-0.045776367,-0.0686645505,134.7,211.5,-41.699999999999996,223354
0.06091277143908723,0.0015401675702316413,0.9863722923113545,0.045776367,0.045776367,0.0534057615,132.29999999999998,209.1,-39.9,223640
0.05980861244019139,0.0014169541646131098,0.9876219947631516,0.0228881835,0.0,0.0381469725,134.7,216.29999999999998,-41.699999999999996,223927
0.05956324377377009,0.001047313947757516,0.9869078790764104,0.0076293945,-0.015258789,0.0,129.9,216.29999999999998,-42.3,224215
0.060299349773033986,0.002649088220798423,0.9868483694358486,0.045776367,-0.106811523,0.0228881835,134.7,221.1,-42.9,224502
0.06514538093485461,0.0013553474618038443,0.9883361104498929,0.0534057615,0.045776367,0.0228881835,129.9,216.29999999999998,-41.1,224787
0.061648877438351124,0.0009857072449482504,0.9841109259700072,0.076293945,0.030517578,-0.0076293945,132.29999999999998,221.1,-41.1,225073
0.06005398110661268,0.001047313947757516,0.9863127826707927,0.0686645505,0.0076293945,0.015258789,134.7,209.1,-40.5,225359
0.060483376272849956,0.0015401675702316413,0.9881575815282075,0.076293945,-0.0991821285,-0.0534057615,132.29999999999998,216.29999999999998,-42.3,225645
0.06042203410624463,0.0016633809758501725,0.9865508212330397,0.015258789,-0.061035156,-0.1449584955,127.5,216.29999999999998,-41.699999999999996,225931
0.05974727027358606,0.0014785608674223755,0.9884551297310165,0.137329101,-0.091552734,-0.015258789,134.7,216.29999999999998,-41.699999999999996,226218
0.06042203410624463,0.0028955150320354854,0.9867888597952869,0.0534057615,-0.061035156,0.1144409175,132.29999999999998,218.7,-42.3,226504
0.06121948227211385,0.002279448003942829,0.9883956200904547,0.0228881835,-0.0076293945,0.0839233395,129.9,216.29999999999998,-42.9,226790
0.06440927493559072,0.0009857072449482504,0.9848250416567484,-0.030517578,0.0,0.0076293945,132.29999999999998,216.29999999999998,-41.1,227075
0.06171021960495645,0.0017865943814687037,0.9869078790764104,0.0839233395,-0.122070312,0.045776367,134.7,213.9,-40.5,227360
0.05876579560790087,0.0025258748151798915,0.9872054272792192,0.0686645505,-0.0686645505,0.0991821285,137.1,213.9,-41.1,227644
0.05986995460679671,0.0030803351404632825,0.9883956200904547,-0.015258789,-0.0228881835,-0.0076293945,134.7,211.5,-42.3,227932
0.05962458594037542,0.0024642681123706258,0.9869078790764104,0.1296997065,-0.030517578,0.0,137.1,216.29999999999998,-41.1,228216
0.060974113605692555,-0.00018482010842779694,0.985717686265175,0.0534057615,0.0534057615,0.091552734,132.29999999999998,213.9,-41.699999999999996,228504
0.06373451110293216,0.0028339083292262196,0.988038562247084,0.0,0.0076293945,0.122070312,132.29999999999998,213.9,-41.699999999999996,228789
0.0620782726045884,0.002957121734844751,0.9871459176386574,0.015258789,-0.0991821285,0.0686645505,129.9,213.9,-41.699999999999996,229076
0.06060606060606061,0.0014169541646131098,0.9857771959057368,0.0228881835,-0.0991821285,0.061035156,137.1,216.29999999999998,-42.3,229361
0.06250766777082567,0.0008624938393297191,0.9892287550583194,-0.061035156,-0.0228881835,0.0991821285,127.5,213.9,-42.3,229647
0.05962458594037542,0.0015401675702316413,0.9891692454177576,-0.0228881835,0.0,0.0,129.9,216.29999999999998,-41.699999999999996,229931
0.06066740277266593,0.0027723016264169544,0.9874434658414664,0.0534057615,-0.0534057615,0.030517578,134.7,218.7,-41.1,230217
0.061955588271377746,0.003942828979793002,0.9872054272792192,0.0686645505,-0.0381469725,0.045776367,134.7,216.29999999999998,-42.3,230506
0.06189424610477242,0.003696402168555939,0.9877410140442752,0.0,0.0,0.0991821285,132.29999999999998,213.9,-41.699999999999996,230792
0.0620782726045884,-0.0003080335140463282,0.9857771959057368,-0.015258789,-0.076293945,0.0839233395,141.9,218.7,-41.699999999999996,231078
0.059195190774138144,-0.0004928536224741252,0.987264936919781,0.0839233395,-0.0534057615,0.0,132.29999999999998,213.9,-40.5,231364
0.06054471843945528,0.0006776737309019222,0.9868483694358486,0.1907348625,-0.1144409175,-0.030517578,132.29999999999998,221.1,-40.5,231649
0.061158140105508525,-0.0006776737309019222,0.9861937633896691,0.015258789,-0.0839233395,0.045776367,132.29999999999998,216.29999999999998,-41.1,231934
0.060851429272481904,0.0003080335140463282,0.9882766008093311,-0.0228881835,-0.0076293945,0.0381469725,137.1,209.1,-41.699999999999996,232220
0.06440927493559072,0.0013553474618038443,0.9839323970483218,0.0381469725,-0.0839233395,-0.0076293945,134.7,213.9,-41.1,232505
0.06312108943687891,0.00425086249383933,0.9868483694358486,0.061035156,-0.030517578,0.015258789,129.9,213.9,-39.3,232792
0.06385719543614281,0.005113356333169049,0.9882766008093311,0.0381469725,0.0534057615,-0.030517578,129.9,216.29999999999998,-42.3,233080
0.06177156177156177,0.0008008871365204534,0.9880980718876458,0.045776367,-0.015258789,0.061035156,127.5,211.5,-42.9,233364
0.060360691939639305,0.0002464268112370626,0.9872054272792192,0.045776367,-0.0534057615,0.045776367,132.29999999999998,216.29999999999998,-42.3,233651
0.0613421666053245,0.0003080335140463282,0.9875624851225898,0.030517578,0.0,0.061035156,132.29999999999998,216.29999999999998,-41.1,233937
0.06103545577229788,0.0011089206505667817,0.9874434658414664,0.030517578,-0.1296997065,-0.030517578,132.29999999999998,211.5,-41.1,234223
0.060176665439823335,0.0025258748151798915,0.987502975482028,0.0839233395,0.045776367,-0.061035156,132.29999999999998,221.1,-41.699999999999996,234508
0.06066740277266593,0.0016017742730409068,0.9873839562009046,0.0839233395,-0.061035156,-0.076293945,139.5,218.7,-41.699999999999996,234794
0.06152619310514047,0.0003080335140463282,0.9888716972149488,0.1449584955,-0.015258789,0.0839233395,132.29999999999998,213.9,-41.1,235078
0.0636118267697215,0.0030803351404632825,0.9884551297310165,-0.0381469725,0.015258789,-0.0534057615,134.7,211.5,-42.3,235364
0.060360691939639305,0.0011089206505667817,0.9860152344679838,0.0228881835,0.0534057615,0.0,137.1,213.9,-41.1,235651
0.0633664581033002,-0.0005544603252833908,0.9896453225422518,0.0686645505,-0.030517578,0.0381469725,132.29999999999998,213.9,-42.9,235937
0.06072874493927125,-0.00018482010842779694,0.9868483694358486,-0.0076293945,-0.0991821285,-0.0076293945,132.29999999999998,216.29999999999998,-41.699999999999996,236223
0.058520426941479575,0.0009857072449482504,0.9857771959057368,-0.030517578,-0.0076293945,0.061035156,134.7,218.7,-41.1,236509
0.0610967979389032,0.0005544603252833908,0.9886931682932635,0.030517578,0.0381469725,-0.0228881835,134.7,223.5,-41.699999999999996,236794
0.062139614771193716,-0.0006160670280926564,0.987264936919781,0.0839233395,-0.030517578,0.0991821285,137.1,216.29999999999998,-41.1,237081
0.0615875352717458,0.0024026614095613605,0.9878600333253987,0.15258789,-0.0839233395,0.0381469725,129.9,218.7,-42.3,237365
0.06391853760274813,0.0012321340561853129,0.9868483694358486,0.0228881835,0.0,0.0686645505,134.7,209.1,-41.1,237650
0.06171021960495645,0.0018482010842779694,0.9882170911687693,-0.0076293945,-0.061035156,-0.0076293945,127.5,211.5,-42.3,237934
0.061648877438351124,0.0011089206505667817,0.9885741490121399,-0.0381469725,-0.091552734,-0.061035156,134.7,213.9,-42.3,238221
0.06275303643724696,0.0012937407589945786,0.988812187574387,-0.0534057615,0.0534057615,-0.0228881835,132.29999999999998,211.5,-41.1,238506
0.06103545577229788,0.0003696402168555939,0.9876219947631516,0.0991821285,0.0228881835,0.0381469725,137.1,218.7,-41.1,238793
0.060360691939639305,0.0016017742730409068,0.9870268983575339,0.0381469725,-0.0534057615,-0.015258789,132.29999999999998,216.29999999999998,-41.1,239077
0.06079008710587658,6.160670280926565e-05,0.988812187574387,0.061035156,0.0076293945,0.0228881835,134.7,213.9,-41.699999999999996,239365
0.059992638940007365,-0.00043124691966485955,0.9834563199238276,-0.0534057615,-0.0991821285,-0.030517578,132.29999999999998,213.9,-42.3,239651
0.0610967979389032,0.0016017742730409068,0.9853606284218044,-0.015258789,-0.0534057615,-0.0381469725,129.9,213.9,-40.5,239937
0.0615875352717458,0.0034499753573188764,0.9862532730302309,0.0381469725,0.061035156,0.015258789,134.7,209.1,-39.9,240221
0.06103545577229788,0.0024026614095613605,0.985717686265175,0.030517578,-0.0686645505,0.015258789,132.29999999999998,213.9,-42.9,240506
0.06146485093853515,0.0027106949236076886,0.9868483694358486,0.0534057615,0.0686645505,-0.0076293945,134.7,213.9,-42.3,240792
0.06263035210403632,0.001971414489896501,0.9882170911687693,0.045776367,0.0,-0.0381469725,129.9,218.7,-41.1,241077
0.060299349773033986,0.0011705273533760474,0.9861937633896691,0.076293945,-0.0228881835,0.015258789,132.29999999999998,211.5,-42.3,241363
0.060483376272849956,-0.0002464268112370626,0.9858962151868603,0.0381469725,-0.0076293945,-0.0839233395,134.7,218.7,-42.3,241650
0.05993129677340204,0.0016017742730409068,0.9865508212330397,-0.1296997065,-0.045776367,0.0,129.9,216.29999999999998,-41.1,241937
0.06091277143908723,-0.00043124691966485955,0.9861937633896691,-0.0076293945,-0.091552734,-0.1602172845,132.29999999999998,213.9,-41.699999999999996,242223
0.06171021960495645,0.003942828979793002,0.9871459176386574,0.0,-0.106811523,-0.2365112295,134.7,216.29999999999998,-41.699999999999996,242508
0.06287572077045761,-0.0003080335140463282,0.9897048321828136,-0.0381469725,0.0076293945,-0.1296997065,134.7,216.29999999999998,-41.1,242794
0.0613421666053245,0.0011705273533760474,0.9877410140442752,0.0,-0.0534057615,-0.0076293945,134.7,213.9,-41.699999999999996,243078
0.06551343393448657,-0.0003080335140463282,0.987264936919781,0.0076293945,-0.091552734,0.0686645505,137.1,216.29999999999998,-41.699999999999996,243366
0.06710833026622501,-0.0059758501724987674,0.9886931682932635,-0.0381469725,0.0,0.442504881,132.29999999999998,213.9,-40.5,243652
0.05901116427432217,0.0003080335140463282,0.9883361104498929,0.0228881835,0.0686645505,0.6790161105,134.7,223.5,-41.1,243938
0.05876579560790087,0.0025258748151798915,0.9869078790764104,-0.061035156,0.015258789,0.1907348625,134.7,216.29999999999998,-42.9,244222
0.06042203410624463,0.006961557417447018,0.9866103308736015,0.030517578,0.0534057615,-0.1144409175,129.9,213.9,-41.699999999999996,244510
0.06177156177156177,0.0012321340561853129,0.9876815044037134,0.030517578,0.015258789,0.1449584955,139.5,218.7,-41.1,244795
0.05980861244019139,0.0018482010842779694,0.9873839562009046,0.0076293945,-0.061035156,0.1449584955,132.29999999999998,211.5,-41.699999999999996,245081
0.06299840510366826,0.0034499753573188764,0.9886931682932635,0.0686645505,-0.0228881835,-0.0534057615,132.29999999999998,218.7,-41.699999999999996,245367
0.060299349773033986,0.0008008871365204534,0.987264936919781,0.1144409175,0.0228881835,0.045776367,129.9,223.5,-40.5,245653
0.06299840510366826,-0.0022178413011335633,0.988812187574387,0.167846679,-0.0686645505,0.122070312,134.7,213.9,-41.699999999999996,245939
0.0633664581033002,-0.0028955150320354854,0.987502975482028,-0.015258789,-0.167846679,0.1602172845,137.1,213.9,-42.9,246225
0.06490001226843332,-0.0024026614095613605,0.9870864079980957,-0.0534057615,-0.030517578,0.1449584955,139.5,218.7,-42.3,246510
0.06128082443871918,0.003511582060128142,0.9872054272792192,0.0686645505,-0.0991821285,0.1144409175,132.29999999999998,211.5,-41.699999999999996,246796
0.056066740277266595,0.007762444553967472,0.9887526779338253,0.030517578,0.0076293945,0.1296997065,134.7,216.29999999999998,-42.3,247082
0.0613421666053245,0.004435682602267127,0.9862532730302309,0.076293945,0.0686645505,0.0076293945,137.1,213.9,-40.5,247368
0.060851429272481904,-0.002587481517989157,0.9861937633896691,0.015258789,-0.015258789,0.1144409175,134.7,213.9,-42.3,247652
0.05888847994111152,0.0031419418432725482,0.9894667936205666,0.0381469725,-0.076293945,0.0,132.29999999999998,213.9,-41.1,247937
0.06385719543614281,0.0007392804337111878,0.9841109259700072,0.061035156,0.091552734,0.0381469725,134.7,213.9,-42.3,248221
0.06079008710587658,-0.0014785608674223755,0.9871459176386574,-0.0076293945,-0.0534057615,0.167846679,132.29999999999998,211.5,-42.3,248509
0.06355048460311619,0.0001232134056185313,0.9878600333253987,0.0228881835,-0.0686645505,-0.030517578,134.7,216.29999999999998,-42.9,248794
0.06103545577229788,0.0015401675702316413,0.988038562247084,0.015258789,-0.045776367,-0.076293945,137.1,216.29999999999998,-40.5,249080
0.06042203410624463,0.0015401675702316413,0.9876815044037134,-0.015258789,-0.0076293945,0.0534057615,132.29999999999998,218.7,-42.9,249364
0.060176665439823335,-0.0001232134056185313,0.985955724827422,-0.061035156,0.061035156,0.0381469725,132.29999999999998,218.7,-40.5,249651
0.05907250644092749,-6.160670280926565e-05,0.9894667936205666,-0.015258789,-0.061035156,0.030517578,129.9,211.5,-41.1,249936
0.06146485093853515,0.0001232134056185313,0.9884551297310165,0.030517578,-0.0534057615,0.0381469725,132.29999999999998,211.5,-41.699999999999996,250226
0.0620782726045884,0.0003696402168555939,0.9883361104498929,0.1144409175,-0.015258789,0.0,134.7,218.7,-42.3,250514
0.061955588271377746,0.0020330211927057666,0.9863127826707927,0.091552734,-0.0076293945,-0.0381469725,141.9,211.5,-41.699999999999996,250801
0.06232364127100969,0.0016017742730409068,0.9864913115924779,0.0228881835,-0.015258789,-0.015258789,139.5,216.29999999999998,-42.3,251088
0.06171021960495645,6.160670280926565e-05,0.9876815044037134,0.045776367,-0.0534057615,0.0,134.7,221.1,-40.5,251374
0.059992638940007365,0.0017865943814687037,0.9868483694358486,-0.030517578,-0.0991821285,0.030517578,129.9,213.9,-41.1,251660
0.05876579560790087,-0.0002464268112370626,0.987502975482028,0.0,-0.015258789,-0.0534057615,134.7,213.9,-42.9,251946
0.060176665439823335,0.0013553474618038443,0.9889907164960724,0.0228881835,-0.0991821285,-0.0228881835,127.5,216.29999999999998,-39.9,252231
0.0583364004416636,-0.0021562345983242976,0.987502975482028,0.0381469725,0.0,0.0381469725,129.9,211.5,-42.3,252516
0.06177156177156177,-0.0008008871365204534,0.9862532730302309,-0.0534057615,-0.0228881835,-0.1907348625,129.9,213.9,-39.9,252800
0.06250766777082567,0.002587481517989157,0.9878600333253987,0.015258789,-0.0839233395,-0.259399413,132.29999999999998,221.1,-41.1,253085
0.06453195926880137,0.0028339083292262196,0.9900023803856225,0.0534057615,-0.030517578,-0.137329101,132.29999999999998,213.9,-41.1,253369
0.06367316893632684,0.0034499753573188764,0.9883956200904547,0.0228881835,-0.0228881835,0.0534057615,132.29999999999998,213.9,-41.1,253657
0.06177156177156177,0.004805322819122721,0.9876219947631516,0.076293945,-0.1296997065,0.4653930645,137.1,213.9,-42.3,253943
0.06060606060606061,-0.0001232134056185313,0.9882766008093311,0.0,0.0,-0.4043579085,137.1,213.9,-42.3,254228
0.0615875352717458,0.0014785608674223755,0.9865508212330397,-0.045776367,-0.0381469725,-0.534057615,134.7,213.9,-40.5,254512
0.06226229910440437,0.0017865943814687037,0.9885741490121399,0.045776367,-0.0686645505,0.0381469725,132.29999999999998,213.9,-42.9,254800
0.06250766777082567,0.0016017742730409068,0.9900618900261843,0.045776367,0.030517578,0.320434569,125.1,216.29999999999998,-42.3,255085
0.06275303643724696,0.0001232134056185313,0.9878600333253987,0.061035156,-0.0228881835,0.366210936,132.29999999999998,218.7,-41.699999999999996,255370
0.06373451110293216,0.006407097092163627,0.9854796477029278,0.122070312,-0.0534057615,0.473022459,129.9,206.7,-40.5,255656
0.06367316893632684,0.0019098077870872351,0.9873244465603428,0.0381469725,-0.091552734,0.6790161105,134.7,206.7,-42.9,255941
0.05986995460679671,-0.0006776737309019222,0.9894667936205666,-0.030517578,-0.091552734,0.259399413,139.5,221.1,-41.699999999999996,256227
0.09256532940743467,-0.012814194184327254,0.9849440609378719,0.1602172845,-0.335693358,1.1062622025,132.29999999999998,213.9,-40.5,256514
0.026929211139737456,0.020453425332676196,0.9913115924779814,0.2365112295,-0.045776367,3.5934448095000002,134.7,213.9,-41.699999999999996,256800
0.05238621028094712,-0.001971414489896501,0.9854796477029278,0.1144409175,-0.1907348625,0.427246092,132.29999999999998,211.5,-41.1,257087
0.0771071034228929,-0.006407097092163627,0.9841704356105689,0.045776367,-0.015258789,-0.0839233395,129.9,213.9,-39.9,257373
0.04637467795362532,0.014539181862986693,0.9890502261366342,0.1144409175,0.030517578,0.564575193,139.5,213.9,-42.3,257658
0.07980615875352717,-0.009241005421389847,0.9863127826707927,0.15258789,-0.0991821285,-0.0228881835,129.9,216.29999999999998,-41.699999999999996,257943
0.05152741994847258,0.009795465746673239,0.9901213996667461,-0.076293945,0.0381469725,0.1754760735,132.29999999999998,211.5,-42.3,258229
0.07238375659428291,-0.0028955150320354854,0.9861342537491073,-0.0076293945,-0.122070312,-0.2059936515,134.7,209.1,-41.1,258513
0.05324500061342167,0.0017865943814687037,0.9880980718876458,0.091552734,-0.0228881835,0.0686645505,137.1,221.1,-39.9,258800
0.056066740277266595,-0.0011089206505667817,0.9888716972149488,0.0228881835,0.0228881835,0.3585815415,134.7,213.9,-39.9,259087
0.060974113605692555,-0.0008008871365204534,0.9888716972149488,0.0991821285,-0.0839233395,0.045776367,137.1,218.7,-42.3,259374
0.06342780026990553,0.002279448003942829,0.987800523684837,0.015258789,0.045776367,0.091552734,132.29999999999998,213.9,-42.3,259661
0.06140350877192982,0.0022178413011335633,0.9869078790764104,-0.0076293945,0.0,0.0076293945,132.29999999999998,211.5,-40.5,259948
0.06594282910072384,-0.0005544603252833908,0.988038562247084,-0.0381469725,-0.061035156,-0.2517700185,134.7,216.29999999999998,-40.5,260232
0.06330511593669488,0.007207984228684081,0.9871459176386574,0.0076293945,0.0076293945,-0.106811523,127.5,216.29999999999998,-42.3,260518
0.061648877438351124,0.003881222276983736,0.9890502261366342,0.030517578,-0.122070312,0.5722045875,127.5,216.29999999999998,-41.699999999999996,260802
0.06140350877192982,0.006591917200591425,0.9889312068555106,0.0839233395,-0.0534057615,1.7929077075,134.7,216.29999999999998,-39.9,261088
0.09777941356888725,-0.013122227698373583,0.988038562247084,0.30517578,-0.335693358,4.516601544,137.1,221.1,-41.1,261375
0.07673905042326094,-0.024026614095613602,0.9923232563675315,1.0757446245,0.488281248,14.03808588,134.7,218.7,-41.1,261664
0.03545577229787756,-0.05544603252833908,0.9878600333253987,0.61035156,0.137329101,15.9835814775,139.5,216.29999999999998,-40.5,261951
0.039443013127223654,-0.007947264662395268,1.0113663413472982,-2.120971671,-0.167846679,10.040283162,134.7,211.5,-44.1,262237
0.03987240829346093,0.0033883686545096107,0.9812544632230421,-5.8670043705,-0.1754760735,5.5923461685,134.7,218.7,-41.1,262522
0.0365599312967734,-0.019282897979300148,0.9642942156629374,-3.0899047725,-0.0076293945,4.1427612135,132.29999999999998,204.29999999999998,-39.9,262808
0.034535639798797695,-0.014600788565795959,0.978695548678886,1.3809204045,-0.2365112295,2.2659301665,137.1,213.9,-40.5,263093
0.05643479327689854,0.02987925086249384,1.003094501309212,2.13623046,-0.1907348625,-0.4653930645,139.5,211.5,-42.3,263380
0.08115568641884431,0.06505667816658453,1.0206498452749346,-2.1438598545,-0.015258789,-0.9078979455,144.29999999999998,216.29999999999998,-41.699999999999996,263667
0.05735492577597841,0.032651552488910794,1.0032730302308974,-16.0903930005,0.3585815415,0.5416870095,134.7,213.9,-42.3,263957
0.0645933014354067,-0.012690980778708724,0.982087598190907,-18.676757736,0.5416870095,-0.4196166975,134.7,213.9,-42.3,264242
0.06483867010182799,-0.0360399211434204,0.9710783146869792,-17.0516967075,0.3738403305,0.30517578,132.29999999999998,218.7,-40.5,264529
0.06281437860385229,-0.049162148841793984,0.9738752677933825,-13.549804632,0.30517578,1.571655267,139.5,204.29999999999998,-41.1,264816
0.056925530609741135,-0.038565795958600296,0.9755415377291121,-10.925292924,0.213623046,1.861572258,139.5,211.5,-41.699999999999996,265103
0.06226229910440437,-0.03326761951700345,0.9808378957391097,-8.2168578765,0.1144409175,2.059936515,141.9,218.7,-41.1,265388
0.07588026009078641,-0.013060620995564317,0.9894667936205666,-7.1334838575,0.015258789,3.6087035985,137.1,213.9,-40.5,265673
0.05661881977671451,-0.012136520453425333,0.9982742204237086,-7.9727172525,0.0,4.7683715625,137.1,216.29999999999998,-41.699999999999996,265957
0.06747638326585695,-0.01472400197141449,0.9916686503213521,-7.8964233075,0.2059936515,7.0114135455,139.5,218.7,-41.699999999999996,266243
0.04637467795362532,-0.009795465746673239,0.9977981432992145,-9.76562496,0.167846679,7.0419311235,134.7,218.7,-40.5,266529
0.040547172126119496,-0.04565056678166585,0.9736372292311355,-11.4364623555,0.167846679,4.4784545715,141.9,216.29999999999998,-42.3,266816
0.043675622622991045,-0.04922375554460325,0.9752439895263033,-8.819580042,0.015258789,2.075195304,137.1,209.1,-41.699999999999996,267100
0.05263157894736842,-0.048484475110892065,0.9805998571768626,-5.5770873795,-0.045776367,1.1062622025,137.1,216.29999999999998,-40.5,267387
0.05324500061342167,-0.0024026614095613605,1.0017257795762913,-5.1498412875,0.0076293945,0.5416870095,139.5,211.5,-40.5,267674
0.06526806526806526,0.02310251355347462,1.0108902642228041,-8.7356567025,0.0991821285,0.0534057615,137.1,218.7,-39.3,267960
0.0728744939271255,-0.007023164120256284,0.9967864794096644,-13.7100219165,0.4501342755,-0.45776367,139.5,221.1,-38.699999999999996,268244
0.06275303643724696,-0.03086495810744209,0.9902999285884313,-15.6173705415,0.4196166975,0.5264282205,141.9,221.1,-41.1,268529
0.06220095693779904,-0.011089206505667817,0.9918471792430373,-17.6010131115,0.3738403305,0.9536743125,137.1,223.5,-38.1,268813
0.07170899276162435,-0.06320847708230655,0.9923827660080933,-17.028808524,0.2975463855,1.4266967715,129.9,221.1,-40.5,269100
0.06502269660164398,-0.032589945786101526,0.9798857414901214,-20.5154418105,0.5264282205,2.334594717,134.7,223.5,-41.1,269386
0.015580910317752423,-0.129866929521932,0.9500714115686741,-15.8004760095,0.503540037,-0.488281248,137.1,221.1,-39.9,269671
0.08796466691203533,-0.11267865943814687,0.9658414663175434,-9.5138549415,0.137329101,-1.113891597,134.7,213.9,-40.5,269956
0.05668016194331984,-0.030002464268112372,0.9960723637229231,-5.935668921,0.350952147,-0.442504881,137.1,218.7,-41.1,270241
0.03840019629493314,-0.02137752587481518,1.0051178290883123,-8.5678100235,0.213623046,-0.213623046,146.7,225.9,-41.1,270526
0.07643233959023432,-0.033760473139477575,1.0042251844798857,-12.0620727045,0.625610349,-4.3258666815,137.1,221.1,-41.1,270810
0.07146362409520304,-0.05969689502217841,0.9758390859319209,-16.0598754225,0.579833982,-2.822875965,134.7,225.9,-39.3,271095
0.0738559685928107,-0.09247166091670773,0.9758390859319209,-5.8212280035,0.061035156,-0.9536743125,137.1,221.1,-39.9,271379
0.07244509876088824,-0.04497289305076392,0.9873244465603428,-3.35693358,0.0228881835,0.6027221655,137.1,225.9,-39.9,271665
0.0368052999631947,-0.04318629866929522,0.992739823851464,-4.1580200025,-0.167846679,3.372192369,137.1,218.7,-38.1,271952
0.04754017911912649,-0.10676441596845737,0.9667341109259701,-4.2037963695,-0.0686645505,2.273559561,141.9,216.29999999999998,-41.1,272236
0.06318243160348423,-0.125,0.9669721494882171,0.2975463855,-0.15258789,0.9841918905,132.29999999999998,221.1,-39.3,272522
0.043675622622991045,-0.07589945786101528,0.9851225898595573,3.35693358,-0.4043579085,1.754760735,134.7,221.1,-39.3,272809
0.07115691326217642,-0.03289797930014786,0.9964889312068556,2.9983520385,-0.3280639635,0.0228881835,144.29999999999998,228.29999999999998,-41.1,273094
0.06103545577229788,-0.04934696895022178,0.9885146393715782,1.174926753,0.0839233395,-2.1591186435,141.9,230.7,-39.9,273379
0.07189301926144032,-0.06105224248398226,0.9841109259700072,3.1356811395,0.259399413,-4.4631957825,139.5,225.9,-37.5,273664
0.08005152741994848,-0.07682355840315426,0.9785170197572006,4.165649397,0.366210936,-3.128051745,141.9,225.9,-39.3,273948
0.07005275426328057,-0.06850665352390341,0.9860747441085456,6.011962866,0.3128051745,-1.968383781,139.5,225.9,-40.5,274235
0.03195926880137406,-0.03468457368161656,1.0001785289216854,4.7531127735,0.1754760735,-1.922607414,139.5,216.29999999999998,-39.3,274520
0.0360691939639308,-0.03178905864958107,0.9926208045703404,2.273559561,0.4196166975,-4.592895489,141.9,221.1,-38.699999999999996,274806
0.07201570359465097,-0.05310497782158699,0.998155201142585,0.869750973,0.7247924775,-7.3623656925,137.1,223.5,-36.9,275091
0.07680039258986628,-0.09148595367175949,0.9808974053796715,-1.846313469,0.549316404,-6.484985325,134.7,228.29999999999998,-40.5,275376
0.09054103790945896,-0.08803597831444061,0.9675672458938348,-0.91552734,0.4959106425,-6.195068334,141.9,223.5,-41.1,275661
0.03165255796834744,-0.0527353376047314,0.9882766008093311,1.464843744,0.564575193,-7.034301729,129.9,228.29999999999998,-41.1,275946
0.02073365231259968,-0.0669048792508625,0.9917876696024756,0.9384155235,0.6790161105,-15.304565367,139.5,221.1,-40.5,276231
0.05287694761378972,-0.07023164120256284,0.9842894548916925,0.503540037,0.7858276335,-18.7911986535,127.5,230.7,-38.699999999999996,276515
0.08342534658324131,-0.06684327254805322,0.979469174006189,1.06811523,1.0299682575,-19.897460856,139.5,225.9,-38.699999999999996,276805
0.08084897558581769,-0.05766387382947265,0.9738157581528207,3.143310534,1.0757446245,-18.1808470935,132.29999999999998,225.9,-40.5,277090
0.06514538093485461,-0.05051749630359783,0.975065460604618,6.057739233,0.961303707,-15.8767699545,129.9,223.5,-39.3,277375
0.06772175193227825,-0.03825776244455397,0.9864913115924779,8.3999633445,0.7858276335,-14.297485293,129.9,225.9,-40.5,277661
0.07066617592933383,-0.05211927057663874,0.9930373720542728,8.071899381,0.686645505,-12.741088815,127.5,233.1,-40.5,277946
0.059685928106980736,-0.0677673730901922,0.9876219947631516,6.9961547565,0.656127927,-10.543823199,127.5,230.7,-39.9,278233
0.055269292111397375,-0.03776490882207984,0.9922637467269698,6.4926147195,0.503540037,-8.2168578765,127.5,230.7,-39.9,278517
0.0731198625935468,-0.05051749630359783,0.9935134491787669,2.7236938365,0.854492184,-13.092040962,134.7,233.1,-42.3,278802
