ax,ay,az,gx,gy,gz,mx,my,mz,t_stamp
0.04895104895104895,0.0024642681123706258,0.9885741490121399,0.473022459,-0.2059936515,0.183105468,122.69999999999999,223.5,-40.5,11221
0.04827628511839038,0.002587481517989157,0.9885146393715782,0.274658202,-0.0534057615,-0.564575193,129.9,223.5,-41.1,11448
0.05079131394920869,0.0009241005421389847,0.9889312068555106,0.381469725,-0.2670288075,-0.411987303,132.29999999999998,230.7,-41.1,11673
0.05177278861489388,0.0008624938393297191,0.9895858129016901,0.0381469725,0.0076293945,-0.045776367,139.5,228.29999999999998,-41.1,11899
0.05109802478223531,0.0012937407589945786,0.9882766008093311,0.0686645505,0.045776367,0.106811523,134.7,225.9,-40.5,12123
0.048582995951417005,0.0001232134056185313,0.9873839562009046,0.0,0.0076293945,0.030517578,132.29999999999998,228.29999999999998,-42.3,12349
0.05011655011655012,0.0031419418432725482,0.9876219947631516,0.0381469725,-0.106811523,0.076293945,129.9,221.1,-39.9,12628
0.048767022451232975,-0.0004928536224741252,0.9870268983575339,0.0839233395,-0.030517578,0.076293945,129.9,221.1,-40.5,12914
0.046988099619678564,-0.0002464268112370626,0.985182099500119,-0.0686645505,0.0,0.061035156,132.29999999999998,228.29999999999998,-41.1,13199
0.049257759784075573,0.0015401675702316413,0.9876219947631516,0.0381469725,-0.0839233395,0.061035156,134.7,225.9,-41.699999999999996,13487
0.04962581278370752,0.0009857072449482504,0.9876815044037134,0.061035156,-0.076293945,0.0,132.29999999999998,218.7,-42.9,13772
0.049380444117286225,0.0009857072449482504,0.9872054272792192,-0.0381469725,-0.0228881835,0.076293945,129.9,228.29999999999998,-40.5,14059
0.05152741994847258,0.0022178413011335633,0.987264936919781,0.015258789,-0.045776367,-0.076293945,134.7,225.9,-39.3,14344
0.05030057661636609,0.0021562345983242976,0.9898833611044989,-0.0076293945,0.0,0.0228881835,129.9,223.5,-42.3,14633
0.04950312845049687,0.0013553474618038443,0.9876219947631516,0.0076293945,-0.0228881835,0.106811523,132.29999999999998,223.5,-39.9,14919
0.04980983928352349,0.0005544603252833908,0.9888716972149488,0.015258789,-0.0686645505,0.0534057615,129.9,230.7,-39.9,15214
0.04999386578333947,0.0008624938393297191,0.9880980718876458,0.061035156,0.0381469725,0.061035156,129.9,223.5,-42.3,15503
0.04999386578333947,-0.0001232134056185313,0.9863722923113545,0.045776367,0.0228881835,-0.0381469725,129.9,228.29999999999998,-40.5,15791
0.04950312845049687,-0.00018482010842779694,0.9882170911687693,-0.015258789,-0.061035156,-0.0076293945,129.9,223.5,-40.5,16079
0.04864433811802233,0.003018728437654017,0.9869673887169722,-0.0381469725,-0.0686645505,0.015258789,127.5,225.9,-41.1,16368
0.05128205128205128,0.0009857072449482504,0.9890502261366342,0.0686645505,0.061035156,-0.0076293945,129.9,228.29999999999998,-41.1,16656
0.05030057661636609,0.003326761951700345,0.987502975482028,0.0686645505,-0.045776367,0.0228881835,129.9,228.29999999999998,-41.1,16945
0.048705680284627656,0.0020330211927057666,0.9869673887169722,0.045776367,-0.091552734,0.122070312,134.7,218.7,-39.9,17232
0.049687154950312847,-0.0007392804337111878,0.9870268983575339,-0.0839233395,0.0228881835,0.0534057615,132.29999999999998,225.9,-42.3,17520
0.051159366948840636,0.0012321340561853129,0.9885146393715782,0.0228881835,0.1296997065,0.0839233395,129.9,225.9,-41.699999999999996,17808
0.04950312845049687,0.0022178413011335633,0.9886931682932635,-0.030517578,-0.045776367,0.0228881835,137.1,225.9,-42.9,18097
0.049441786283891544,0.0011705273533760474,0.9853606284218044,0.015258789,-0.0686645505,-0.045776367,137.1,221.1,-40.5,18383
0.051834130781499205,0.0023410547067520947,0.9863127826707927,0.0991821285,-0.030517578,-0.030517578,127.5,228.29999999999998,-41.1,18671
0.050545945282787386,0.002649088220798423,0.9886336586527017,0.091552734,0.0228881835,0.0,134.7,228.29999999999998,-42.9,18958
0.049687154950312847,0.0024026614095613605,0.9881575815282075,0.0839233395,-0.0381469725,0.0228881835,132.29999999999998,223.5,-39.9,19245
0.05017789228315544,6.160670280926565e-05,0.9891692454177576,-0.0228881835,-0.045776367,-0.045776367,137.1,223.5,-41.1,19534
0.049441786283891544,0.0001232134056185313,0.9865508212330397,0.0839233395,-0.0534057615,0.0686645505,127.5,221.1,-39.9,19825
0.04913507545086492,-0.001047313947757516,0.9864318019519163,0.061035156,-0.076293945,0.030517578,127.5,223.5,-38.699999999999996,20113
0.05066862961599804,0.0005544603252833908,0.9877410140442752,0.030517578,-0.0381469725,0.0228881835,132.29999999999998,225.9,-41.699999999999996,20401
0.04980983928352349,0.002649088220798423,0.988038562247084,0.0076293945,-0.0686645505,-0.015258789,134.7,223.5,-39.9,20688
0.04962581278370752,0.002957121734844751,0.9883361104498929,0.0534057615,-0.045776367,-0.0381469725,132.29999999999998,225.9,-41.1,20975
0.05128205128205128,0.0024642681123706258,0.9857771959057368,0.0076293945,0.0991821285,0.030517578,132.29999999999998,223.5,-41.699999999999996,21261
0.05152741994847258,-0.0006776737309019222,0.9863722923113545,0.030517578,-0.0228881835,0.0228881835,125.1,221.1,-41.699999999999996,21549
0.050239234449760764,0.0009241005421389847,0.9877410140442752,0.0,-0.0076293945,0.076293945,132.29999999999998,221.1,-41.1,21838
0.048582995951417005,0.0019098077870872351,0.9877410140442752,-0.0076293945,0.0381469725,0.1296997065,129.9,225.9,-40.5,22125
0.050239234449760764,0.0009241005421389847,0.9875624851225898,0.0076293945,-0.0534057615,0.0534057615,129.9,228.29999999999998,-39.3,22412
0.04815360078517973,0.0014785608674223755,0.9884551297310165,-0.030517578,-0.1602172845,0.0228881835,132.29999999999998,228.29999999999998,-41.699999999999996,22700
0.050361918782971415,0.0006160670280926564,0.9864318019519163,0.0076293945,-0.030517578,-0.015258789,127.5,228.29999999999998,-41.1,22990
0.05165010428168323,0.0006160670280926564,0.985955724827422,0.0686645505,0.045776367,0.061035156,134.7,225.9,-42.3,23277
0.04980983928352349,0.0021562345983242976,0.9881575815282075,-0.061035156,-0.0076293945,0.030517578,129.9,225.9,-41.1,23564
0.04919641761747025,0.0009857072449482504,0.9904189478695549,-0.0076293945,0.0,-0.0534057615,134.7,225.9,-41.1,23851
0.05072997178260336,0.0017865943814687037,0.9858367055462985,-0.045776367,-0.106811523,0.030517578,127.5,230.7,-42.3,24138
0.05042326094957674,0.0028339083292262196,0.9861937633896691,-0.061035156,-0.015258789,0.0839233395,134.7,218.7,-40.5,24428
0.05109802478223531,0.002279448003942829,0.9880980718876458,0.0839233395,0.015258789,0.015258789,127.5,228.29999999999998,-40.5,24714
0.04987118145012882,0.003018728437654017,0.9905379671506784,0.076293945,0.0228881835,-0.0686645505,137.1,218.7,-40.5,25001
0.05085265611581401,0.003696402168555939,0.9881575815282075,0.0534057615,-0.0381469725,-0.0228881835,132.29999999999998,225.9,-41.699999999999996,25288
0.05085265611581401,0.004743716116313455,0.9870268983575339,-0.015258789,-0.091552734,-0.045776367,125.1,225.9,-41.699999999999996,25577
0.052692921113973744,0.0024026614095613605,0.9889907164960724,-0.0076293945,0.0076293945,-0.0381469725,129.9,228.29999999999998,-40.5,25864
0.051220709115445955,0.0016017742730409068,0.9875624851225898,-0.0381469725,-0.0228881835,0.0228881835,132.29999999999998,230.7,-39.3,26151
0.05091399828241933,0.0006776737309019222,0.9861937633896691,-0.015258789,-0.030517578,-0.0076293945,134.7,223.5,-42.3,26438
0.051343393448656606,-0.00043124691966485955,0.9854796477029278,0.045776367,-0.015258789,0.0228881835,132.29999999999998,223.5,-40.5,26727
0.05066862961599804,0.0012321340561853129,0.9883956200904547,0.0381469725,-0.030517578,-0.0076293945,134.7,225.9,-41.699999999999996,27015
0.051036682615629984,0.0014169541646131098,0.9854796477029278,0.045776367,-0.0381469725,-0.015258789,134.7,225.9,-41.1,27302
0.050545945282787386,0.002094627895515032,0.9876219947631516,0.0228881835,0.0534057615,0.045776367,132.29999999999998,221.1,-42.9,27589
0.05042326094957674,0.004497289305076392,0.9870864079980957,0.030517578,0.0228881835,0.0076293945,134.7,230.7,-41.1,27878
0.050055207949944794,0.0008624938393297191,0.9873839562009046,0.106811523,-0.0076293945,0.0,134.7,228.29999999999998,-41.1,28165
0.048767022451232975,-0.00043124691966485955,0.9880980718876458,0.091552734,-0.0381469725,0.015258789,127.5,230.7,-42.3,28452
0.04999386578333947,-0.0024026614095613605,0.9878600333253987,0.045776367,0.0076293945,0.1144409175,127.5,225.9,-41.699999999999996,28741
0.049380444117286225,0.0002464268112370626,0.9851225898595573,0.061035156,0.0228881835,-0.0228881835,132.29999999999998,225.9,-41.699999999999996,29029
0.04962581278370752,0.002649088220798423,0.9870864079980957,0.0839233395,-0.045776367,-0.0381469725,125.1,221.1,-39.9,29316
0.049564470617102195,0.0018482010842779694,0.9869673887169722,0.0534057615,-0.0534057615,-0.045776367,127.5,228.29999999999998,-41.699999999999996,29604
0.04735615261931051,0.0027723016264169544,0.9847655320161867,0.061035156,-0.0228881835,-0.0991821285,139.5,223.5,-40.5,29891
0.05079131394920869,0.002957121734844751,0.9866103308736015,0.091552734,-0.0381469725,0.015258789,127.5,233.1,-42.3,30179
0.050361918782971415,0.0011089206505667817,0.9868483694358486,0.030517578,0.0534057615,0.0228881835,137.1,223.5,-41.1,30465
0.05171144644828855,0.0013553474618038443,0.9857771959057368,0.091552734,0.0,0.0,127.5,228.29999999999998,-40.5,30752
0.05030057661636609,-0.0001232134056185313,0.9845274934539395,0.0686645505,-0.0381469725,0.0534057615,134.7,223.5,-40.5,31039
0.049257759784075573,0.0023410547067520947,0.985182099500119,0.015258789,-0.045776367,0.106811523,134.7,223.5,-40.5,31326
0.04987118145012882,0.0024642681123706258,0.9863127826707927,0.0,0.0076293945,0.015258789,132.29999999999998,223.5,-42.3,31614
0.049687154950312847,0.0037580088713652046,0.9882766008093311,0.0991821285,-0.0991821285,0.0381469725,129.9,228.29999999999998,-43.5,31902
0.0488283646178383,0.002279448003942829,0.9876815044037134,0.1296997065,-0.030517578,0.076293945,132.29999999999998,221.1,-42.3,32191
0.04852165378481168,0.0016017742730409068,0.987502975482028,0.0839233395,0.0228881835,-0.0076293945,127.5,225.9,-39.9,32480
0.04999386578333947,0.0031419418432725482,0.9872054272792192,0.137329101,-0.0839233395,0.0076293945,132.29999999999998,223.5,-42.3,32768
0.05189547294810453,0.002094627895515032,0.9866698405141633,0.122070312,-0.045776367,0.015258789,125.1,230.7,-41.699999999999996,33056
0.05140473561526193,0.0014169541646131098,0.9867888597952869,0.061035156,-0.0839233395,0.0534057615,132.29999999999998,225.9,-42.3,33342
0.04950312845049687,0.0009241005421389847,0.9885741490121399,-0.0228881835,-0.0534057615,-0.091552734,132.29999999999998,225.9,-39.3,33631
0.05030057661636609,0.0018482010842779694,0.9880980718876458,0.015258789,-0.0381469725,-0.045776367,134.7,223.5,-40.5,33919
0.04980983928352349,0.0035731887629374074,0.9895263032611283,0.0991821285,-0.045776367,0.0076293945,127.5,221.1,-42.3,34207
0.049564470617102195,0.0017249876786594382,0.9867293501547251,0.122070312,-0.0228881835,0.0228881835,127.5,221.1,-41.699999999999996,34494
0.04833762728499571,0.0009857072449482504,0.9851225898595573,0.122070312,-0.0381469725,0.015258789,132.29999999999998,218.7,-41.699999999999996,34783
0.04999386578333947,-0.0008008871365204534,0.9865508212330397,0.0,-0.030517578,0.0381469725,132.29999999999998,223.5,-41.699999999999996,35071
0.05109802478223531,0.0009857072449482504,0.987800523684837,0.0991821285,0.061035156,0.0,132.29999999999998,230.7,-41.699999999999996,35359
0.05171144644828855,0.0006776737309019222,0.9873839562009046,0.0076293945,0.0839233395,0.015258789,137.1,223.5,-41.699999999999996,35646
0.05030057661636609,0.0019098077870872351,0.9870864079980957,-0.015258789,-0.0534057615,-0.0228881835,134.7,228.29999999999998,-42.3,35934
0.04747883695252116,0.002094627895515032,0.9869673887169722,0.030517578,0.0534057615,-0.0381469725,132.29999999999998,225.9,-40.5,36221
0.050239234449760764,0.0022178413011335633,0.9854796477029278,0.0228881835,-0.0228881835,0.076293945,129.9,225.9,-41.1,36510
0.05128205128205128,0.002587481517989157,0.9864913115924779,-0.0686645505,-0.0076293945,0.030517578,134.7,223.5,-40.5,36798
0.05085265611581401,0.0031419418432725482,0.9858962151868603,0.061035156,-0.061035156,-0.030517578,125.1,223.5,-41.699999999999996,37085
0.0488283646178383,0.0013553474618038443,0.9886336586527017,-0.0228881835,-0.015258789,0.1296997065,129.9,235.5,-41.1,37373
0.048767022451232975,0.0017865943814687037,0.9904189478695549,0.122070312,0.076293945,0.0534057615,129.9,230.7,-41.1,37661
0.052508894614157774,-0.0006776737309019222,0.987264936919781,0.0534057615,-0.106811523,0.0381469725,132.29999999999998,225.9,-41.1,37948
0.05091399828241933,0.0009857072449482504,0.9873244465603428,0.1296997065,-0.0228881835,-0.0228881835,127.5,225.9,-41.1,38236
0.04974849711691817,0.0021562345983242976,0.9870864079980957,0.045776367,-0.015258789,0.0228881835,129.9,223.5,-40.5,38523
0.04962581278370752,0.0024642681123706258,0.9886931682932635,0.045776367,-0.0076293945,0.030517578,132.29999999999998,216.29999999999998,-40.5,38810
0.04852165378481168,0.0023410547067520947,0.9910140442751726,0.0686645505,-0.030517578,0.0381469725,129.9,221.1,-41.699999999999996,39098
0.050239234449760764,0.0027723016264169544,0.9864913115924779,0.0839233395,0.106811523,0.0228881835,129.9,221.1,-39.9,39385
0.05066862961599804,0.0022178413011335633,0.9871459176386574,0.030517578,-0.030517578,0.030517578,137.1,233.1,-40.5,39672
0.04987118145012882,0.0032035485460818135,0.9884551297310165,0.106811523,-0.061035156,0.0228881835,132.29999999999998,228.29999999999998,-40.5,39959
0.04827628511839038,0.0016633809758501725,0.9866103308736015,0.106811523,-0.061035156,0.076293945,129.9,228.29999999999998,-40.5,40247
0.0493191019506809,0.0012321340561853129,0.9887526779338253,0.0076293945,0.0,0.106811523,127.5,225.9,-39.9,40535
0.04950312845049687,0.0006776737309019222,0.9873839562009046,-0.015258789,0.0228881835,-0.045776367,134.7,225.9,-41.1,40821
0.050239234449760764,0.0024642681123706258,0.9860747441085456,0.0076293945,0.015258789,0.0381469725,129.9,221.1,-41.1,41109
0.050239234449760764,0.0027723016264169544,0.9875624851225898,0.091552734,-0.0076293945,0.045776367,132.29999999999998,228.29999999999998,-40.5,41397
0.04962581278370752,0.0031419418432725482,0.9855986669840514,0.061035156,0.0228881835,0.0381469725,134.7,218.7,-41.1,41686
0.051220709115445955,0.00043124691966485955,0.987800523684837,0.1296997065,0.0,0.030517578,132.29999999999998,221.1,-41.1,41973
0.05152741994847258,0.0024642681123706258,0.9873244465603428,-0.0534057615,-0.076293945,0.045776367,127.5,228.29999999999998,-39.3,42261
0.052508894614157774,0.0014785608674223755,0.9867293501547251,0.0991821285,0.0,0.0228881835,132.29999999999998,223.5,-41.1,42547
0.05238621028094712,0.0024642681123706258,0.987264936919781,-0.030517578,0.030517578,0.0228881835,132.29999999999998,225.9,-41.699999999999996,42835
0.04980983928352349,0.002649088220798423,0.9901809093073077,0.015258789,-0.015258789,0.076293945,129.9,228.29999999999998,-41.1,43122
0.048767022451232975,0.0027106949236076886,0.9885146393715782,0.0686645505,-0.030517578,0.0228881835,122.69999999999999,225.9,-41.699999999999996,43409
0.04993252361673414,0.0017249876786594382,0.9870864079980957,0.0381469725,-0.0381469725,-0.0076293945,127.5,225.9,-42.3,43696
0.04999386578333947,0.0016633809758501725,0.9882170911687693,-0.030517578,-0.0534057615,0.0534057615,132.29999999999998,233.1,-41.699999999999996,43984
0.05097534044902466,0.0032035485460818135,0.9876219947631516,0.15258789,-0.030517578,0.0991821285,129.9,225.9,-41.1,44271
0.05128205128205128,0.00043124691966485955,0.987800523684837,0.0686645505,-0.106811523,0.0,134.7,228.29999999999998,-40.5,44558
0.051159366948840636,0.0008624938393297191,0.9888716972149488,0.0534057615,-0.0839233395,-0.0076293945,132.29999999999998,225.9,-39.9,44845
0.05085265611581401,0.0014785608674223755,0.9872054272792192,0.045776367,-0.0228881835,0.045776367,132.29999999999998,223.5,-41.1,45132
0.04980983928352349,0.0024026614095613605,0.9890502261366342,-0.0076293945,-0.030517578,-0.0228881835,129.9,225.9,-41.1,45419
0.050361918782971415,0.0011089206505667817,0.9875624851225898,-0.030517578,-0.045776367,-0.0991821285,132.29999999999998,228.29999999999998,-41.699999999999996,45707
0.05011655011655012,0.00018482010842779694,0.9877410140442752,0.015258789,0.061035156,0.015258789,134.7,221.1,-41.1,45994
0.04974849711691817,0.0012937407589945786,0.9883361104498929,0.015258789,-0.030517578,0.0534057615,132.29999999999998,228.29999999999998,-41.1,46285
0.05011655011655012,0.0007392804337111878,0.9863127826707927,0.0381469725,-0.076293945,0.0228881835,129.9,225.9,-41.1,46573
0.05042326094957674,0.0023410547067520947,0.9861342537491073,-0.061035156,-0.015258789,-0.045776367,129.9,223.5,-41.1,46861
0.04913507545086492,-0.0005544603252833908,0.9847655320161867,0.0,-0.0228881835,-0.030517578,132.29999999999998,223.5,-41.1,47147
0.05030057661636609,0.004374075899457861,0.987264936919781,0.0839233395,0.0228881835,0.0381469725,132.29999999999998,223.5,-39.9,47435
0.049257759784075573,0.003511582060128142,0.9866103308736015,0.0839233395,-0.0076293945,0.076293945,132.29999999999998,225.9,-38.699999999999996,47722
0.04987118145012882,0.003511582060128142,0.9868483694358486,-0.0076293945,-0.045776367,0.106811523,129.9,218.7,-42.3,48010
0.0515887621150779,0.00018482010842779694,0.9881575815282075,0.0076293945,0.0076293945,0.0,132.29999999999998,223.5,-40.5,48296
0.050239234449760764,0.0003080335140463282,0.9869078790764104,0.106811523,-0.030517578,0.0228881835,129.9,223.5,-40.5,48584
0.049687154950312847,0.0012937407589945786,0.9874434658414664,0.061035156,-0.015258789,0.015258789,129.9,228.29999999999998,-42.3,48871
0.049257759784075573,0.001047313947757516,0.987800523684837,0.0686645505,-0.030517578,0.0534057615,134.7,225.9,-40.5,49159
0.05042326094957674,0.0011089206505667817,0.9860152344679838,-0.0076293945,-0.0076293945,0.0991821285,129.9,225.9,-40.5,49446
0.04821494295178506,0.0016017742730409068,0.9898238514639371,0.0686645505,-0.0381469725,0.0991821285,137.1,230.7,-39.9,49733
0.05017789228315544,0.0011705273533760474,0.9896453225422518,-0.0228881835,-0.0228881835,0.091552734,132.29999999999998,223.5,-41.699999999999996,50020
0.05171144644828855,0.0016633809758501725,0.9869078790764104,0.0228881835,0.0,0.0686645505,134.7,225.9,-41.699999999999996,50308
0.05042326094957674,0.00043124691966485955,0.9854201380623661,-0.015258789,0.0,0.0839233395,132.29999999999998,223.5,-39.9,50595
0.04993252361673414,0.002279448003942829,0.9873244465603428,0.1144409175,0.0228881835,0.0076293945,134.7,228.29999999999998,-41.1,50882
0.05140473561526193,0.0012937407589945786,0.9860152344679838,0.1296997065,0.0,0.0228881835,127.5,218.7,-41.699999999999996,51173
0.05220218378113115,0.0008624938393297191,0.9858367055462985,-0.045776367,-0.0228881835,0.015258789,134.7,228.29999999999998,-41.699999999999996,51461
0.04987118145012882,0.0002464268112370626,0.9864913115924779,-0.030517578,-0.091552734,0.0076293945,127.5,225.9,-39.9,51748
0.048582995951417005,0.0018482010842779694,0.9886931682932635,-0.0076293945,-0.0381469725,0.045776367,125.1,221.1,-39.9,52036
0.04999386578333947,0.0014785608674223755,0.9880980718876458,0.0076293945,0.030517578,0.0,127.5,218.7,-41.1,52322
0.05011655011655012,0.002649088220798423,0.9866103308736015,0.0228881835,0.091552734,0.0228881835,134.7,230.7,-39.9,52609
0.048889706784443626,0.0012937407589945786,0.9869673887169722,0.0839233395,-0.0076293945,0.0534057615,132.29999999999998,228.29999999999998,-40.5,52895
0.04747883695252116,0.001047313947757516,0.9873244465603428,0.0534057615,-0.0076293945,0.0076293945,132.29999999999998,223.5,-41.699999999999996,53183
0.051343393448656606,0.0011705273533760474,0.9883956200904547,0.0076293945,0.030517578,0.061035156,132.29999999999998,223.5,-40.5,53470
0.05060728744939271,0.0011089206505667817,0.9868483694358486,0.122070312,0.0,0.076293945,129.9,228.29999999999998,-41.699999999999996,53759
0.05146607778186726,0.00018482010842779694,0.9879195429659605,0.0076293945,-0.0076293945,0.030517578,137.1,225.9,-39.3,54046
0.05072997178260336,0.0006776737309019222,0.9860747441085456,0.0076293945,0.0076293945,0.0534057615,134.7,235.5,-40.5,54333
0.05066862961599804,0.0030803351404632825,0.9865508212330397,0.0,-0.015258789,0.0839233395,127.5,223.5,-41.1,54619
0.05189547294810453,0.0016633809758501725,0.9894072839800048,0.015258789,-0.0686645505,-0.0534057615,132.29999999999998,225.9,-41.699999999999996,54907
0.051343393448656606,0.0027723016264169544,0.9880980718876458,0.0686645505,-0.0686645505,0.0,125.1,223.5,-41.1,55195
0.04735615261931051,0.0027106949236076886,0.9901213996667461,-0.0534057615,-0.091552734,0.1144409175,134.7,221.1,-41.1,55483
0.04919641761747025,0.002649088220798423,0.988038562247084,0.0076293945,-0.0991821285,0.030517578,127.5,225.9,-42.3,55769
0.05042326094957674,0.0037580088713652046,0.9888716972149488,0.0228881835,0.0228881835,0.0076293945,127.5,221.1,-44.1,56058
0.04803091645196908,0.0016017742730409068,0.9901213996667461,0.0228881835,-0.137329101,0.0076293945,132.29999999999998,221.1,-41.1,56345
0.04999386578333947,0.001971414489896501,0.9873244465603428,-0.015258789,-0.061035156,0.0228881835,127.5,225.9,-41.699999999999996,56633
0.050055207949944794,0.0028955150320354854,0.9882170911687693,0.0228881835,-0.0534057615,0.0228881835,127.5,225.9,-40.5,56920
0.050239234449760764,0.0014785608674223755,0.9885146393715782,-0.0534057615,-0.0686645505,0.0076293945,129.9,228.29999999999998,-39.9,57209
0.049441786283891544,0.0018482010842779694,0.9889312068555106,0.0076293945,-0.0686645505,-0.0228881835,127.5,225.9,-41.699999999999996,57496
0.04803091645196908,0.0012937407589945786,0.9882170911687693,-0.0076293945,-0.0991821285,-0.015258789,129.9,228.29999999999998,-41.699999999999996,57784
0.04993252361673414,0.0,0.9868483694358486,0.030517578,-0.106811523,-0.0534057615,129.9,223.5,-42.9,58075
0.05177278861489388,-0.0007392804337111878,0.9891097357771959,0.0839233395,0.045776367,0.0,132.29999999999998,228.29999999999998,-41.699999999999996,58362
0.049257759784075573,0.0019098077870872351,0.9881575815282075,-0.0534057615,-0.0076293945,0.061035156,134.7,225.9,-41.699999999999996,58650
0.048705680284627656,0.0018482010842779694,0.9883956200904547,0.061035156,-0.030517578,0.076293945,132.29999999999998,230.7,-41.1,58938
0.05042326094957674,0.0011705273533760474,0.9856581766246132,0.0381469725,-0.061035156,0.0076293945,129.9,225.9,-39.3,59225
0.049380444117286225,-0.0012937407589945786,0.9849440609378719,0.0228881835,-0.0228881835,0.0228881835,127.5,221.1,-39.9,59513
0.05060728744939271,0.0009857072449482504,0.9868483694358486,0.0534057615,-0.061035156,0.0,129.9,225.9,-41.699999999999996,59800
0.04993252361673414,0.002587481517989157,0.9865508212330397,0.0228881835,-0.045776367,-0.0381469725,129.9,221.1,-40.5,60088
0.051343393448656606,0.0009857072449482504,0.9900618900261843,0.0991821285,-0.061035156,0.0076293945,132.29999999999998,223.5,-41.699999999999996,60375
0.051343393448656606,0.0003080335140463282,0.988038562247084,0.091552734,-0.030517578,0.0228881835,125.1,228.29999999999998,-41.699999999999996,60663
0.04919641761747025,-0.0002464268112370626,0.9875624851225898,-0.0534057615,0.0381469725,0.0228881835,132.29999999999998,230.7,-39.9,60953
0.04919641761747025,0.0012937407589945786,0.9872054272792192,0.030517578,-0.0228881835,-0.0076293945,132.29999999999998,218.7,-41.699999999999996,61241
0.05091399828241933,0.0024642681123706258,0.9873244465603428,0.106811523,-0.0076293945,0.015258789,127.5,228.29999999999998,-41.699999999999996,61529
0.048767022451232975,0.0024026614095613605,0.9872054272792192,0.015258789,-0.0534057615,-0.0076293945,127.5,228.29999999999998,-41.699999999999996,61817
0.048889706784443626,0.001971414489896501,0.985955724827422,-0.045776367,-0.061035156,-0.045776367,132.29999999999998,225.9,-38.699999999999996,62105
0.04827628511839038,0.0030803351404632825,0.988812187574387,0.0076293945,0.0076293945,0.0076293945,129.9,225.9,-40.5,62393
0.05017789228315544,0.0015401675702316413,0.9889907164960724,0.122070312,-0.045776367,0.0381469725,127.5,223.5,-40.5,62679
0.049564470617102195,0.0017865943814687037,0.9896453225422518,0.076293945,-0.076293945,0.076293945,117.89999999999999,233.1,-41.1,62966
0.04962581278370752,0.0033883686545096107,0.9879790526065223,-0.0076293945,0.0076293945,-0.015258789,125.1,225.9,-39.9,63253
0.05079131394920869,0.003326761951700345,0.9890502261366342,0.0,-0.0381469725,0.0381469725,129.9,223.5,-40.5,63542
0.05091399828241933,0.0014169541646131098,0.9870268983575339,0.0686645505,-0.0076293945,0.0076293945,129.9,223.5,-39.3,63830
0.04803091645196908,0.002094627895515032,0.9866698405141633,-0.0076293945,-0.0381469725,0.015258789,134.7,218.7,-39.9,64119
0.05097534044902466,0.0028955150320354854,0.9860152344679838,0.045776367,-0.030517578,0.0076293945,132.29999999999998,225.9,-42.3,64407
0.050239234449760764,0.0012321340561853129,0.9873839562009046,0.0686645505,-0.030517578,-0.015258789,125.1,221.1,-40.5,64695
0.05177278861489388,0.002649088220798423,0.9892882646988812,0.0686645505,0.0381469725,-0.0076293945,129.9,228.29999999999998,-41.1,64981
0.05060728744939271,0.0009241005421389847,0.9882170911687693,0.0534057615,-0.061035156,0.0228881835,129.9,225.9,-42.3,65270
0.04852165378481168,0.0020330211927057666,0.9882170911687693,0.0839233395,0.0076293945,0.015258789,129.9,230.7,-41.1,65556
0.05072997178260336,0.0024642681123706258,0.9879790526065223,0.0686645505,0.0228881835,0.045776367,127.5,228.29999999999998,-39.9,65846
0.04980983928352349,0.0031419418432725482,0.987264936919781,0.0686645505,-0.091552734,-0.0228881835,129.9,218.7,-40.5,66133
0.04962581278370752,0.0016633809758501725,0.9898833611044989,0.030517578,-0.076293945,0.015258789,129.9,223.5,-41.1,66421
0.049564470617102195,0.0016017742730409068,0.9879790526065223,-0.137329101,-0.0686645505,0.091552734,129.9,225.9,-42.3,66708
0.04980983928352349,0.00043124691966485955,0.9891692454177576,-0.030517578,-0.0534057615,0.0381469725,132.29999999999998,225.9,-39.9,66996
0.04704944178628389,0.0020330211927057666,0.9899428707450607,0.15258789,-0.0228881835,0.015258789,125.1,225.9,-41.699999999999996,67284
0.050055207949944794,0.003018728437654017,0.9891692454177576,0.0686645505,0.0,0.0991821285,129.9,233.1,-41.1,67572
0.05030057661636609,0.0014785608674223755,0.9875624851225898,0.0686645505,0.0,0.0228881835,127.5,223.5,-39.9,67858
0.05097534044902466,0.003696402168555939,0.9876815044037134,0.1296997065,-0.0534057615,0.0076293945,129.9,225.9,-39.9,68147
0.051220709115445955,0.0013553474618038443,0.9885741490121399,0.0,-0.0839233395,-0.0228881835,129.9,223.5,-41.699999999999996,68434
0.050239234449760764,0.0033883686545096107,0.9875624851225898,0.0534057615,-0.061035156,0.0228881835,129.9,225.9,-41.1,68721
0.048705680284627656,0.004066042385411533,0.9876815044037134,0.076293945,-0.0686645505,0.0534057615,129.9,221.1,-40.5,69008
0.05030057661636609,0.0028339083292262196,0.9904784575101166,0.0,0.015258789,0.0534057615,134.7,223.5,-41.1,69298
0.051159366948840636,0.003326761951700345,0.9897643418233754,0.0,0.015258789,-0.030517578,129.9,228.29999999999998,-40.5,69584
0.05060728744939271,0.0017249876786594382,0.9891097357771959,0.1449584955,0.0,0.0,129.9,225.9,-41.1,69872
0.04987118145012882,0.0004928536224741252,0.9886931682932635,0.076293945,0.0228881835,0.030517578,129.9,233.1,-39.9,70159
0.04913507545086492,0.0022178413011335633,0.9872054272792192,-0.015258789,-0.0076293945,0.0076293945,129.9,223.5,-39.9,70447
0.051343393448656606,0.001047313947757516,0.9889907164960724,0.0991821285,-0.0991821285,0.0686645505,132.29999999999998,225.9,-41.699999999999996,70736
0.05244755244755245,0.0025258748151798915,0.9878600333253987,0.1449584955,-0.0076293945,0.122070312,132.29999999999998,225.9,-41.1,71024
0.04980983928352349,0.003881222276983736,0.9828017138776481,0.0228881835,0.061035156,0.030517578,132.29999999999998,221.1,-40.5,71311
0.05079131394920869,0.0028955150320354854,0.9873839562009046,0.0,-0.0686645505,0.0228881835,134.7,221.1,-42.3,71599
0.04919641761747025,0.0016017742730409068,0.9896453225422518,0.0534057615,-0.0381469725,-0.0076293945,134.7,225.9,-43.5,71885
0.04980983928352349,0.0007392804337111878,0.9860747441085456,-0.015258789,-0.0228881835,-0.061035156,129.9,233.1,-41.1,72172
0.04913507545086492,0.003881222276983736,0.9882766008093311,0.091552734,0.0228881835,-0.0534057615,129.9,223.5,-42.9,72459
0.04999386578333947,0.0,0.9907760057129255,0.091552734,-0.015258789,0.045776367,132.29999999999998,225.9,-41.1,72746
0.05042326094957674,0.0005544603252833908,0.9891692454177576,0.0,-0.0991821285,0.030517578,132.29999999999998,228.29999999999998,-40.5,73036
0.050055207949944794,-0.0003080335140463282,0.9879195429659605,0.106811523,-0.015258789,-0.0076293945,132.29999999999998,225.9,-41.699999999999996,73324
0.04974849711691817,0.0006776737309019222,0.988038562247084,0.061035156,0.0,0.061035156,129.9,230.7,-38.1,73612
0.05048460311618207,0.004990142927550518,0.9863127826707927,0.167846679,-0.076293945,0.015258789,132.29999999999998,223.5,-40.5,73899
0.051343393448656606,0.003696402168555939,0.9870268983575339,0.1144409175,-0.1144409175,-0.0076293945,132.29999999999998,225.9,-41.699999999999996,74188
0.05152741994847258,0.0014785608674223755,0.9867888597952869,0.0839233395,-0.15258789,0.0839233395,132.29999999999998,225.9,-41.1,74477
0.05060728744939271,0.0017865943814687037,0.9867293501547251,0.0076293945,0.0228881835,0.0534057615,127.5,230.7,-41.699999999999996,74763
0.051220709115445955,0.0025258748151798915,0.9874434658414664,-0.015258789,-0.15258789,-0.0076293945,129.9,228.29999999999998,-39.3,75051
0.05091399828241933,0.0016633809758501725,0.987800523684837,0.061035156,-0.0686645505,-0.0534057615,122.69999999999999,225.9,-40.5,75338
0.048092258618574406,0.0012937407589945786,0.9876815044037134,0.061035156,-0.122070312,0.0076293945,129.9,221.1,-40.5,75626
0.049380444117286225,0.0004928536224741252,0.9881575815282075,0.045776367,-0.0991821285,0.0,132.29999999999998,225.9,-42.3,75913
0.05128205128205128,-0.0012937407589945786,0.9867293501547251,0.076293945,-0.061035156,0.0991821285,134.7,225.9,-39.9,76201
0.05066862961599804,0.0008008871365204534,0.9871459176386574,0.0228881835,0.030517578,0.045776367,137.1,223.5,-41.1,76489
0.04974849711691817,0.0028955150320354854,0.9889907164960724,0.0381469725,-0.0228881835,0.045776367,127.5,228.29999999999998,-41.1,76777
0.05146607778186726,0.0004928536224741252,0.988038562247084,0.0228881835,0.0381469725,-0.015258789,134.7,230.7,-41.699999999999996,77064
0.051036682615629984,0.0017249876786594382,0.985955724827422,0.091552734,0.0,-0.0228881835,132.29999999999998,230.7,-40.5,77351
0.049380444117286225,0.0009857072449482504,0.9891692454177576,0.0534057615,-0.045776367,0.0,134.7,225.9,-40.5,77638
0.04974849711691817,0.0025258748151798915,0.9904784575101166,0.061035156,-0.0076293945,0.045776367,137.1,225.9,-39.9,77928
0.050545945282787386,0.0025258748151798915,0.9861937633896691,0.0534057615,0.0076293945,0.015258789,132.29999999999998,225.9,-38.1,78214
0.05097534044902466,0.0008008871365204534,0.9880980718876458,0.030517578,0.0228881835,0.0228881835,132.29999999999998,223.5,-41.1,78502
0.04993252361673414,0.002279448003942829,0.9873839562009046,0.0228881835,-0.045776367,0.106811523,134.7,225.9,-41.1,78788
0.050545945282787386,0.0020330211927057666,0.9883361104498929,-0.0228881835,-0.0228881835,0.122070312,129.9,228.29999999999998,-41.1,79077
0.04919641761747025,-0.001047313947757516,0.9887526779338253,0.0076293945,-0.061035156,0.0534057615,127.5,223.5,-39.9,79363
0.05091399828241933,-0.0008008871365204534,0.9884551297310165,0.0381469725,0.015258789,0.015258789,129.9,223.5,-40.5,79651
0.05072997178260336,0.0034499753573188764,0.9861937633896691,0.0381469725,-0.015258789,-0.0076293945,137.1,223.5,-39.3,79937
0.05177278861489388,0.0006160670280926564,0.9866698405141633,0.045776367,-0.0534057615,0.015258789,132.29999999999998,225.9,-41.1,80225
0.049564470617102195,0.0011089206505667817,0.9877410140442752,0.1449584955,-0.045776367,0.0228881835,134.7,221.1,-40.5,80513
0.05171144644828855,0.002279448003942829,0.9885146393715782,0.0,-0.0228881835,0.0381469725,129.9,223.5,-40.5,80800
0.050361918782971415,0.002649088220798423,0.9882766008093311,0.0076293945,-0.015258789,-0.0381469725,137.1,216.29999999999998,-40.5,81087
0.051036682615629984,0.0027723016264169544,0.9895263032611283,0.0228881835,-0.0686645505,-0.0076293945,125.1,228.29999999999998,-40.5,81375
0.051220709115445955,0.0022178413011335633,0.9902404189478695,0.0076293945,-0.0534057615,0.0381469725,134.7,228.29999999999998,-38.699999999999996,81662
0.04974849711691817,0.0014169541646131098,0.9878600333253987,0.0076293945,-0.0381469725,0.091552734,125.1,230.7,-42.3,81951
0.05060728744939271,0.0018482010842779694,0.9870864079980957,0.106811523,-0.0076293945,-0.0076293945,132.29999999999998,223.5,-41.1,82240
0.04987118145012882,0.0027723016264169544,0.989347774339443,0.0686645505,0.0686645505,-0.0228881835,129.9,218.7,-42.3,82527
0.04987118145012882,0.0012937407589945786,0.9899428707450607,0.045776367,0.015258789,0.0381469725,129.9,225.9,-39.9,82817
0.05060728744939271,-0.0008624938393297191,0.9873839562009046,0.0381469725,-0.030517578,-0.015258789,132.29999999999998,225.9,-41.699999999999996,83104
0.04987118145012882,0.001971414489896501,0.9872054272792192,-0.045776367,-0.0076293945,0.045776367,127.5,221.1,-41.699999999999996,83392
0.050055207949944794,0.002649088220798423,0.9879790526065223,-0.0839233395,-0.091552734,0.030517578,132.29999999999998,223.5,-42.3,83680
0.051159366948840636,0.0008624938393297191,0.9879195429659605,-0.0228881835,-0.0839233395,0.091552734,127.5,230.7,-42.9,83967
0.05244755244755245,0.0017865943814687037,0.9885146393715782,0.1144409175,-0.0991821285,0.0076293945,134.7,223.5,-41.1,84255
0.050361918782971415,-0.0005544603252833908,0.9908355153534872,0.061035156,0.015258789,-0.0228881835,129.9,225.9,-40.5,84541
0.04974849711691817,0.0024026614095613605,0.9874434658414664,0.0228881835,0.015258789,0.0381469725,129.9,228.29999999999998,-40.5,84830
0.050545945282787386,0.0034499753573188764,0.989347774339443,0.045776367,-0.0228881835,0.0534057615,132.29999999999998,230.7,-40.5,85116
0.048889706784443626,0.0023410547067520947,0.9895263032611283,0.0381469725,-0.061035156,0.045776367,134.7,223.5,-41.1,85404
0.049257759784075573,0.001047313947757516,0.987800523684837,0.015258789,-0.0381469725,0.061035156,127.5,225.9,-41.699999999999996,85692
0.049687154950312847,0.0031419418432725482,0.9879195429659605,0.137329101,0.0228881835,0.030517578,122.69999999999999,228.29999999999998,-39.9,85980
0.05146607778186726,0.0024642681123706258,0.988812187574387,0.183105468,-0.0076293945,0.0991821285,129.9,225.9,-41.1,86268
0.050361918782971415,0.0016017742730409068,0.9860152344679838,0.0991821285,-0.076293945,0.0076293945,129.9,225.9,-41.699999999999996,86556
0.05042326094957674,0.0018482010842779694,0.9880980718876458,-0.030517578,-0.061035156,0.0381469725,134.7,225.9,-39.9,86843
0.04950312845049687,0.001971414489896501,0.9894667936205666,-0.045776367,-0.0076293945,0.076293945,132.29999999999998,225.9,-40.5,87131
0.04846031161820635,0.0003080335140463282,0.9885146393715782,0.122070312,0.0381469725,-0.0076293945,134.7,225.9,-42.3,87418
0.05140473561526193,0.0002464268112370626,0.9876815044037134,0.0,-0.0686645505,0.030517578,127.5,225.9,-41.1,87708
0.05072997178260336,0.0008624938393297191,0.9879195429659605,0.0686645505,-0.122070312,0.0839233395,127.5,223.5,-41.1,87994
0.04999386578333947,0.0025258748151798915,0.9886931682932635,0.030517578,-0.1144409175,0.030517578,125.1,230.7,-41.699999999999996,88282
0.049687154950312847,0.002957121734844751,0.9903594382289931,0.122070312,-0.0076293945,0.0381469725,137.1,228.29999999999998,-40.5,88568
0.05140473561526193,0.0014169541646131098,0.9877410140442752,0.106811523,-0.0076293945,0.076293945,127.5,225.9,-41.699999999999996,88857
0.04987118145012882,0.003326761951700345,0.9904189478695549,0.0076293945,0.015258789,0.0534057615,132.29999999999998,228.29999999999998,-39.9,89145
0.04962581278370752,0.0027106949236076886,0.9876815044037134,0.0686645505,-0.0228881835,0.015258789,132.29999999999998,225.9,-38.1,89433
0.0493191019506809,0.0006776737309019222,0.9894072839800048,0.061035156,0.015258789,-0.0228881835,132.29999999999998,225.9,-41.699999999999996,89720
0.05140473561526193,0.0012937407589945786,0.9873839562009046,0.030517578,0.0076293945,0.0381469725,134.7,221.1,-40.5,90009
0.04999386578333947,0.0013553474618038443,0.989347774339443,-0.0076293945,0.015258789,0.030517578,125.1,223.5,-41.1,90297
0.049257759784075573,0.001971414489896501,0.9913711021185432,-0.0534057615,-0.0686645505,-0.030517578,129.9,228.29999999999998,-39.3,90584
0.05066862961599804,0.003634795465746673,0.9876815044037134,-0.0228881835,-0.0534057615,-0.0228881835,134.7,230.7,-42.9,90873
0.050239234449760764,0.0034499753573188764,0.9886336586527017,0.061035156,-0.061035156,0.0,127.5,228.29999999999998,-40.5,91161
0.05011655011655012,0.0016017742730409068,0.9864913115924779,0.061035156,0.030517578,0.0,139.5,223.5,-40.5,91448
0.05128205128205128,0.0022178413011335633,0.9870864079980957,0.0,0.015258789,-0.0228881835,134.7,225.9,-41.1,91735
0.049380444117286225,0.0024642681123706258,0.9897048321828136,0.030517578,-0.0076293945,0.0534057615,125.1,223.5,-41.1,92022
0.05011655011655012,0.0023410547067520947,0.9903594382289931,0.0839233395,-0.0381469725,0.106811523,129.9,225.9,-39.9,92309
0.05066862961599804,0.002279448003942829,0.9879790526065223,0.015258789,0.0686645505,0.0534057615,132.29999999999998,223.5,-41.699999999999996,92599
0.04987118145012882,0.0017249876786594382,0.9886336586527017,0.0381469725,0.0,-0.0534057615,125.1,228.29999999999998,-42.3,92888
0.05017789228315544,0.0013553474618038443,0.9891692454177576,0.015258789,0.0991821285,0.0686645505,125.1,228.29999999999998,-42.3,93175
0.04901239111765428,0.0,0.9885741490121399,-0.061035156,-0.015258789,0.0381469725,127.5,225.9,-39.9,93463
0.04962581278370752,0.0023410547067520947,0.9886931682932635,0.0381469725,-0.076293945,0.0,127.5,228.29999999999998,-40.5,93749
0.05226352594773647,-0.0006160670280926564,0.9886931682932635,0.122070312,-0.106811523,0.0839233395,134.7,225.9,-42.9,94036
0.051036682615629984,0.0005544603252833908,0.9869673887169722,0.091552734,-0.015258789,0.198364257,134.7,223.5,-40.5,94323
0.049441786283891544,0.0025258748151798915,0.9901213996667461,0.091552734,-0.0839233395,0.0991821285,132.29999999999998,225.9,-42.3,94610
0.05165010428168323,0.002094627895515032,0.988038562247084,0.015258789,-0.0381469725,0.015258789,134.7,223.5,-40.5,94897
0.04962581278370752,0.0019098077870872351,0.987800523684837,0.0,-0.0076293945,0.0076293945,127.5,223.5,-41.699999999999996,95186
0.047908232118758436,0.002957121734844751,0.9870268983575339,0.0991821285,0.0228881835,0.015258789,132.29999999999998,230.7,-41.1,95473
0.05072997178260336,0.0007392804337111878,0.9856581766246132,-0.0228881835,-0.015258789,0.0228881835,134.7,228.29999999999998,-40.5,95761
0.05195681511470985,0.0007392804337111878,0.988038562247084,0.0,0.015258789,0.0686645505,134.7,225.9,-40.5,96048
0.049687154950312847,0.0015401675702316413,0.9885146393715782,0.091552734,0.0076293945,-0.045776367,127.5,223.5,-40.5,96335
0.05226352594773647,0.0024026614095613605,0.9863722923113545,-0.015258789,-0.0991821285,-0.0839233395,129.9,228.29999999999998,-39.9,96622
0.051343393448656606,-0.001047313947757516,0.9871459176386574,0.0534057615,-0.0839233395,0.0,132.29999999999998,225.9,-39.9,96910
0.05109802478223531,0.001971414489896501,0.9910140442751726,0.0534057615,-0.0228881835,0.0228881835,129.9,225.9,-39.3,97196
0.04913507545086492,0.0006776737309019222,0.9898238514639371,-0.0534057615,-0.1602172845,0.030517578,129.9,225.9,-41.1,97486
0.04974849711691817,0.0024642681123706258,0.9897643418233754,0.1449584955,-0.0228881835,-0.015258789,132.29999999999998,230.7,-41.1,97774
0.05042326094957674,0.0031419418432725482,0.9875624851225898,-0.0228881835,0.0076293945,0.045776367,122.69999999999999,228.29999999999998,-39.3,98062
0.051036682615629984,0.00043124691966485955,0.987800523684837,0.0534057615,0.106811523,0.030517578,141.9,223.5,-41.1,98349
0.04987118145012882,0.0024642681123706258,0.9883361104498929,0.0381469725,0.015258789,0.122070312,127.5,225.9,-40.5,98636
0.04999386578333947,0.002587481517989157,0.987800523684837,-0.0228881835,0.0076293945,0.0,134.7,221.1,-41.699999999999996,98923
0.04895104895104895,0.0005544603252833908,0.9860747441085456,0.076293945,-0.030517578,-0.0381469725,132.29999999999998,230.7,-40.5,99210
0.04980983928352349,0.0,0.985955724827422,0.091552734,-0.1296997065,0.061035156,129.9,223.5,-41.1,99497
0.04999386578333947,0.0027106949236076886,0.988812187574387,0.076293945,-0.015258789,0.0381469725,129.9,223.5,-39.9,99786
0.05011655011655012,0.0009241005421389847,0.9904784575101166,0.061035156,0.0,-0.0076293945,137.1,230.7,-41.699999999999996,100073
0.051036682615629984,0.002279448003942829,0.9894072839800048,0.0534057615,-0.0228881835,0.015258789,129.9,225.9,-39.9,100362
0.05146607778186726,0.0034499753573188764,0.9901809093073077,0.030517578,-0.045776367,-0.0381469725,132.29999999999998,223.5,-41.1,100649
0.051159366948840636,-0.0009857072449482504,0.9874434658414664,0.106811523,-0.030517578,0.0686645505,125.1,225.9,-41.1,100936
0.049564470617102195,0.00043124691966485955,0.9901809093073077,0.0228881835,-0.0076293945,0.0076293945,132.29999999999998,225.9,-40.5,101223
0.052018157281315175,-0.0002464268112370626,0.9912520828374196,-0.0381469725,-0.015258789,0.0534057615,127.5,230.7,-41.699999999999996,101511
0.051834130781499205,0.0003696402168555939,0.9874434658414664,-0.0228881835,-0.106811523,0.0686645505,134.7,228.29999999999998,-39.9,101798
0.05017789228315544,0.0028955150320354854,0.9867293501547251,-0.0076293945,-0.0076293945,0.0381469725,134.7,223.5,-41.1,102086
0.05066862961599804,0.0015401675702316413,0.9898833611044989,0.0839233395,-0.0228881835,0.0381469725,132.29999999999998,221.1,-41.1,102374
0.04962581278370752,0.0009241005421389847,0.9882766008093311,0.0991821285,0.045776367,0.0381469725,127.5,223.5,-40.5,102663
0.05152741994847258,0.0003696402168555939,0.9872054272792192,0.015258789,0.015258789,0.091552734,132.29999999999998,228.29999999999998,-41.1,102950
0.0520794994479205,-0.001047313947757516,0.9877410140442752,0.0686645505,0.0228881835,0.0534057615,132.29999999999998,223.5,-41.1,103239
0.050239234449760764,0.0001232134056185313,0.9887526779338253,0.0839233395,-0.076293945,0.0534057615,127.5,221.1,-42.3,103525
0.05060728744939271,0.00043124691966485955,0.9883956200904547,0.0534057615,-0.0228881835,-0.0228881835,129.9,223.5,-40.5,103813
0.05042326094957674,0.0014169541646131098,0.988812187574387,0.091552734,-0.0228881835,-0.015258789,134.7,223.5,-39.9,104099
0.05042326094957674,0.0013553474618038443,0.9907760057129255,0.015258789,-0.0381469725,0.0534057615,127.5,225.9,-40.5,104387
0.049441786283891544,0.0008008871365204534,0.9876219947631516,0.061035156,-0.015258789,0.0,127.5,225.9,-41.1,104673
0.04987118145012882,0.00043124691966485955,0.987264936919781,0.1449584955,-0.0076293945,0.0381469725,134.7,230.7,-41.699999999999996,104961
0.0515887621150779,0.0004928536224741252,0.9884551297310165,0.0534057615,-0.0228881835,0.0228881835,132.29999999999998,230.7,-38.699999999999996,105248
0.05171144644828855,0.0002464268112370626,0.9903594382289931,0.045776367,0.1144409175,0.015258789,132.29999999999998,223.5,-38.1,105537
0.05128205128205128,-0.0001232134056185313,0.9905974767912402,0.015258789,0.0228881835,-0.015258789,137.1,230.7,-41.1,105824
0.04913507545086492,0.0019098077870872351,0.9887526779338253,-0.030517578,0.0228881835,-0.0228881835,132.29999999999998,221.1,-41.1,106112
0.04999386578333947,0.0028339083292262196,0.9905974767912402,-0.0839233395,0.015258789,0.015258789,127.5,221.1,-40.5,106399
0.049380444117286225,0.0017249876786594382,0.9876815044037134,0.0,-0.0381469725,-0.0381469725,132.29999999999998,221.1,-39.9,106686
0.05079131394920869,0.0011705273533760474,0.9864913115924779,0.0228881835,-0.061035156,0.030517578,127.5,230.7,-40.5,106973
0.04833762728499571,0.0009241005421389847,0.9851225898595573,0.061035156,-0.045776367,0.061035156,129.9,233.1,-41.1,107262
0.05152741994847258,0.0011089206505667817,0.9886931682932635,0.2212524405,-0.030517578,-0.0076293945,125.1,223.5,-41.699999999999996,107549
0.05072997178260336,0.0011705273533760474,0.987264936919781,0.091552734,-0.061035156,-0.0534057615,129.9,233.1,-39.9,107837
0.04974849711691817,0.002279448003942829,0.9879195429659605,0.061035156,0.0,-0.015258789,125.1,223.5,-40.5,108124
0.04895104895104895,0.002279448003942829,0.9874434658414664,0.0534057615,0.0,0.0076293945,129.9,221.1,-40.5,108412
0.05091399828241933,0.0030803351404632825,0.9886336586527017,0.076293945,-0.1144409175,0.0228881835,134.7,230.7,-38.699999999999996,108699
0.04895104895104895,0.0012937407589945786,0.987800523684837,0.1296997065,-0.030517578,-0.0076293945,127.5,228.29999999999998,-40.5,108989
0.05079131394920869,0.0021562345983242976,0.987264936919781,0.030517578,0.0,0.061035156,129.9,230.7,-39.9,109276
0.051343393448656606,0.0018482010842779694,0.9874434658414664,0.0,0.061035156,-0.015258789,127.5,221.1,-40.5,109563
0.049441786283891544,0.001971414489896501,0.9884551297310165,-0.015258789,-0.0228881835,-0.0228881835,129.9,223.5,-42.3,109849
0.04987118145012882,0.0007392804337111878,0.988812187574387,0.030517578,0.015258789,0.030517578,137.1,228.29999999999998,-40.5,110137
0.05072997178260336,0.0020330211927057666,0.9876219947631516,-0.045776367,-0.0534057615,0.061035156,129.9,228.29999999999998,-41.699999999999996,110424
0.05072997178260336,0.0009857072449482504,0.987264936919781,0.061035156,-0.061035156,0.0,122.69999999999999,228.29999999999998,-41.1,110713
0.04754017911912649,0.0007392804337111878,0.9897048321828136,0.0534057615,-0.045776367,0.030517578,139.5,225.9,-42.3,111000
0.050239234449760764,0.0009241005421389847,0.9892882646988812,0.0381469725,-0.0228881835,0.015258789,122.69999999999999,223.5,-40.5,111288
0.051343393448656606,0.0004928536224741252,0.9867888597952869,0.091552734,-0.0534057615,0.076293945,132.29999999999998,225.9,-41.699999999999996,111575
0.05079131394920869,0.0013553474618038443,0.9887526779338253,0.045776367,-0.0076293945,0.0534057615,129.9,228.29999999999998,-42.3,111864
0.05244755244755245,0.0003080335140463282,0.9886931682932635,0.1144409175,-0.030517578,-0.0381469725,127.5,225.9,-41.1,112153
0.05097534044902466,0.0006160670280926564,0.9892287550583194,0.0839233395,-0.030517578,-0.0076293945,134.7,235.5,-39.9,112441
0.05042326094957674,0.0013553474618038443,0.9882170911687693,0.0839233395,-0.106811523,-0.0076293945,125.1,221.1,-41.1,112727
0.0490737332842596,0.0013553474618038443,0.9886336586527017,0.015258789,-0.061035156,0.061035156,129.9,218.7,-41.699999999999996,113015
0.0493191019506809,0.002094627895515032,0.9891692454177576,0.106811523,0.0228881835,0.0534057615,127.5,228.29999999999998,-41.1,113302
0.05066862961599804,0.0009857072449482504,0.9884551297310165,0.1602172845,-0.030517578,0.061035156,132.29999999999998,223.5,-42.3,113590
0.05011655011655012,0.002587481517989157,0.9868483694358486,0.030517578,-0.045776367,0.0228881835,127.5,223.5,-42.9,113877
0.05085265611581401,0.0024026614095613605,0.9873839562009046,0.061035156,-0.0228881835,-0.045776367,129.9,228.29999999999998,-40.5,114164
0.05017789228315544,0.0019098077870872351,0.9877410140442752,0.045776367,0.0839233395,-0.106811523,125.1,230.7,-42.3,114451
0.04901239111765428,0.0011089206505667817,0.9864318019519163,0.015258789,0.045776367,0.0,132.29999999999998,225.9,-40.5,114738
0.04974849711691817,0.0003696402168555939,0.9877410140442752,-0.0534057615,-0.0381469725,0.0076293945,132.29999999999998,230.7,-41.1,115025
0.04993252361673414,0.0027106949236076886,0.9895858129016901,0.030517578,-0.015258789,0.0,129.9,225.9,-39.9,115313
0.05146607778186726,0.0007392804337111878,0.9891692454177576,0.1296997065,-0.0076293945,0.0228881835,129.9,218.7,-40.5,115599
0.05109802478223531,0.0011089206505667817,0.9884551297310165,0.0839233395,0.015258789,-0.0076293945,129.9,228.29999999999998,-39.9,115887
0.05109802478223531,0.003511582060128142,0.988812187574387,-0.0381469725,0.0534057615,0.0686645505,132.29999999999998,225.9,-41.1,116174
0.05085265611581401,0.004066042385411533,0.9900618900261843,0.15258789,-0.0076293945,0.061035156,134.7,228.29999999999998,-40.5,116462
0.05030057661636609,0.0004928536224741252,0.9891692454177576,-0.045776367,-0.015258789,-0.076293945,137.1,223.5,-42.3,116748
0.050239234449760764,0.0012937407589945786,0.9886931682932635,-0.045776367,0.015258789,0.0381469725,129.9,230.7,-41.1,117042
0.050055207949944794,0.002649088220798423,0.9872054272792192,0.0381469725,-0.1296997065,0.0839233395,129.9,221.1,-40.5,117329
0.04987118145012882,0.0008008871365204534,0.9895858129016901,0.015258789,-0.076293945,-0.015258789,132.29999999999998,228.29999999999998,-41.699999999999996,117618
0.04784688995215311,-0.0003696402168555939,0.9864913115924779,-0.045776367,0.0381469725,0.015258789,134.7,225.9,-39.9,117906
0.04895104895104895,0.0012321340561853129,0.9880980718876458,0.198364257,0.030517578,0.0534057615,127.5,228.29999999999998,-41.699999999999996,118194
0.051220709115445955,0.0004928536224741252,0.9883361104498929,0.0534057615,0.0,0.0534057615,137.1,225.9,-42.3,118482
0.05177278861489388,-0.0001232134056185313,0.9891692454177576,0.015258789,-0.1144409175,0.137329101,132.29999999999998,223.5,-40.5,118769
0.05060728744939271,0.0017865943814687037,0.9902999285884313,0.0381469725,-0.015258789,0.015258789,122.69999999999999,225.9,-41.1,119057
0.0515887621150779,0.0024026614095613605,0.9879195429659605,0.045776367,0.030517578,-0.137329101,134.7,225.9,-39.9,119346
0.050361918782971415,0.0001232134056185313,0.9883361104498929,-0.030517578,-0.015258789,-0.0381469725,127.5,225.9,-41.1,119633
0.04950312845049687,-0.0014169541646131098,0.987800523684837,-0.0839233395,-0.076293945,0.0381469725,132.29999999999998,223.5,-39.9,119921
0.04999386578333947,0.0016017742730409068,0.9878600333253987,-0.045776367,0.015258789,-0.015258789,127.5,221.1,-42.3,120208
0.05109802478223531,0.0015401675702316413,0.9880980718876458,0.0076293945,0.0,0.030517578,132.29999999999998,230.7,-40.5,120497
0.05085265611581401,0.0011089206505667817,0.987502975482028,0.0228881835,0.0,0.0076293945,134.7,221.1,-40.5,120784
0.051159366948840636,0.0014785608674223755,0.9885741490121399,0.0839233395,0.0,0.015258789,125.1,235.5,-41.1,121072
0.04821494295178506,0.001971414489896501,0.988812187574387,0.106811523,-0.030517578,-0.045776367,132.29999999999998,223.5,-39.9,122739
0.04852165378481168,0.003511582060128142,0.9883361104498929,-0.0228881835,0.0076293945,0.0839233395,127.5,223.5,-42.3,123030
0.05030057661636609,0.0015401675702316413,0.9904189478695549,0.091552734,-0.015258789,-0.0228881835,132.29999999999998,221.1,-41.699999999999996,123318
0.05152741994847258,0.001047313947757516,0.9886931682932635,0.030517578,-0.0534057615,0.0076293945,132.29999999999998,223.5,-41.1,123606
0.04980983928352349,0.003881222276983736,0.9890502261366342,0.0686645505,-0.106811523,0.091552734,125.1,233.1,-41.1,123895
0.049441786283891544,0.0016017742730409068,0.9882766008093311,0.0534057615,0.0,-0.0534057615,134.7,230.7,-40.5,124182
0.049257759784075573,0.0014169541646131098,0.9889312068555106,0.0,0.030517578,0.0076293945,127.5,228.29999999999998,-41.1,124470
0.048767022451232975,0.0011089206505667817,0.9895858129016901,0.137329101,0.030517578,0.091552734,134.7,223.5,-42.3,124758
0.04913507545086492,-0.0011089206505667817,0.9883956200904547,0.0,0.0,-0.015258789,125.1,223.5,-38.699999999999996,125046
0.04852165378481168,0.0008624938393297191,0.9883361104498929,0.0076293945,-0.0534057615,-0.061035156,134.7,223.5,-41.699999999999996,125333
0.04950312845049687,0.0019098077870872351,0.9878600333253987,0.0686645505,0.015258789,0.0076293945,132.29999999999998,228.29999999999998,-41.699999999999996,125621
0.049564470617102195,6.160670280926565e-05,0.9878600333253987,-0.030517578,-0.0228881835,0.0839233395,129.9,223.5,-41.699999999999996,125908
0.05017789228315544,0.0005544603252833908,0.9885146393715782,0.0076293945,-0.030517578,0.076293945,129.9,230.7,-41.1,126197
0.050361918782971415,0.0032651552488910792,0.9879195429659605,0.0381469725,-0.0381469725,0.015258789,134.7,225.9,-41.1,126484
0.048889706784443626,0.0005544603252833908,0.9869078790764104,-0.045776367,-0.0381469725,0.015258789,125.1,225.9,-41.1,126771
0.05048460311618207,0.0016633809758501725,0.9884551297310165,0.0,-0.0076293945,0.0534057615,127.5,223.5,-41.699999999999996,127058
0.04913507545086492,0.0016017742730409068,0.9879195429659605,0.0534057615,0.045776367,0.0534057615,127.5,218.7,-39.9,127346
0.049564470617102195,0.0004928536224741252,0.987800523684837,-0.0381469725,-0.0076293945,0.045776367,132.29999999999998,228.29999999999998,-39.9,127632
0.04987118145012882,0.0006776737309019222,0.988812187574387,0.045776367,-0.030517578,0.0686645505,125.1,223.5,-40.5,127922
0.05140473561526193,0.0009857072449482504,0.9879790526065223,-0.061035156,-0.015258789,0.0381469725,125.1,225.9,-40.5,128209
0.05091399828241933,0.0014169541646131098,0.9884551297310165,-0.0839233395,-0.0228881835,0.015258789,134.7,225.9,-39.9,128497
0.0515887621150779,0.00018482010842779694,0.9902999285884313,0.1144409175,-0.0534057615,0.030517578,125.1,221.1,-40.5,128785
0.0515887621150779,0.0020330211927057666,0.985955724827422,-0.0076293945,0.0,0.0991821285,127.5,228.29999999999998,-40.5,129073
0.05042326094957674,0.0009241005421389847,0.9855391573434896,-0.091552734,0.061035156,0.0839233395,127.5,228.29999999999998,-41.1,129359
0.04962581278370752,0.0016633809758501725,0.9869078790764104,0.030517578,0.0076293945,0.0534057615,132.29999999999998,228.29999999999998,-39.9,129650
0.05109802478223531,0.0011705273533760474,0.987502975482028,0.137329101,-0.0381469725,0.0381469725,127.5,223.5,-39.9,129937
0.051159366948840636,0.0003080335140463282,0.987502975482028,0.167846679,-0.061035156,0.061035156,129.9,225.9,-41.699999999999996,130225
0.051036682615629984,0.0,0.9891692454177576,0.015258789,-0.076293945,-0.045776367,127.5,223.5,-41.1,130511
0.051220709115445955,0.0024026614095613605,0.9868483694358486,-0.045776367,-0.0534057615,-0.0076293945,132.29999999999998,233.1,-43.5,130798
0.0488283646178383,0.0012937407589945786,0.9890502261366342,0.1144409175,-0.0381469725,0.015258789,129.9,228.29999999999998,-41.1,131086
0.05017789228315544,0.0018482010842779694,0.9874434658414664,0.045776367,-0.0839233395,0.0,139.5,228.29999999999998,-41.699999999999996,131374
0.049441786283891544,0.003511582060128142,0.9882170911687693,0.0076293945,0.015258789,0.0534057615,132.29999999999998,225.9,-39.3,131661
0.05048460311618207,0.0019098077870872351,0.9867293501547251,0.1296997065,0.0228881835,0.0534057615,134.7,223.5,-39.9,131951
0.051343393448656606,-0.0006776737309019222,0.9886931682932635,0.015258789,-0.061035156,-0.0228881835,127.5,223.5,-39.9,132238
0.04895104895104895,0.00018482010842779694,0.9900023803856225,0.106811523,0.045776367,0.0534057615,125.1,223.5,-40.5,132525
0.04895104895104895,0.0028339083292262196,0.9880980718876458,0.1144409175,0.061035156,-0.030517578,132.29999999999998,221.1,-40.5,132812
0.05017789228315544,0.004189255791030064,0.9882170911687693,0.076293945,0.0228881835,0.015258789,125.1,225.9,-42.3,133102
0.0490737332842596,0.0031419418432725482,0.9874434658414664,0.0991821285,-0.045776367,0.0686645505,129.9,228.29999999999998,-39.9,133389
0.04895104895104895,0.002957121734844751,0.9873244465603428,0.030517578,-0.0228881835,-0.0076293945,127.5,221.1,-39.3,133677
0.050545945282787386,0.0011705273533760474,0.9897643418233754,-0.015258789,0.015258789,-0.0228881835,127.5,228.29999999999998,-39.3,133964
0.04827628511839038,0.0017249876786594382,0.9870864079980957,0.0991821285,-0.030517578,0.030517578,129.9,225.9,-41.1,134252
0.04895104895104895,0.0006776737309019222,0.987800523684837,0.1449584955,0.0076293945,0.045776367,127.5,221.1,-41.1,134540
0.05109802478223531,0.0007392804337111878,0.9886931682932635,0.0534057615,-0.015258789,-0.045776367,132.29999999999998,223.5,-39.3,134828
0.051036682615629984,0.0014169541646131098,0.987502975482028,0.0381469725,-0.061035156,0.030517578,132.29999999999998,228.29999999999998,-41.1,135116
0.04987118145012882,0.0012321340561853129,0.987800523684837,-0.061035156,-0.030517578,0.0686645505,127.5,225.9,-39.9,135406
0.04993252361673414,0.0020330211927057666,0.9876219947631516,0.0076293945,0.0076293945,0.076293945,127.5,228.29999999999998,-40.5,135694
0.04974849711691817,0.0027106949236076886,0.9873244465603428,-0.030517578,0.0228881835,-0.0534057615,127.5,225.9,-41.1,135982
0.04962581278370752,0.0020330211927057666,0.9887526779338253,0.0839233395,-0.091552734,0.0228881835,127.5,228.29999999999998,-41.1,136269
0.05097534044902466,-0.0009857072449482504,0.9891097357771959,-0.0076293945,-0.015258789,-0.0381469725,129.9,221.1,-40.5,136558
0.0515887621150779,0.0011705273533760474,0.9871459176386574,0.0381469725,0.061035156,0.0076293945,129.9,223.5,-41.1,136848
0.05048460311618207,0.0009857072449482504,0.9866698405141633,0.1602172845,-0.0534057615,0.0839233395,132.29999999999998,221.1,-41.1,137136
0.04987118145012882,0.0002464268112370626,0.9869673887169722,0.0839233395,-0.076293945,0.091552734,132.29999999999998,225.9,-41.699999999999996,137423
0.050545945282787386,0.0021562345983242976,0.987264936919781,0.0839233395,-0.015258789,0.045776367,129.9,228.29999999999998,-41.699999999999996,137711
0.05189547294810453,0.0023410547067520947,0.9872054272792192,0.1144409175,-0.076293945,0.0,127.5,230.7,-41.1,137999
0.05189547294810453,0.0012321340561853129,0.9891692454177576,0.106811523,-0.015258789,0.0,134.7,221.1,-40.5,138287
0.04980983928352349,0.0012321340561853129,0.9876219947631516,-0.0076293945,-0.045776367,0.061035156,127.5,228.29999999999998,-39.9,138573
0.051036682615629984,0.0016017742730409068,0.9873244465603428,0.0534057615,0.0076293945,0.0381469725,127.5,223.5,-39.9,138861
0.051220709115445955,0.0027106949236076886,0.9886931682932635,0.0,0.0076293945,-0.0381469725,134.7,225.9,-41.1,139149
0.049564470617102195,0.0012937407589945786,0.9883361104498929,0.015258789,-0.045776367,-0.015258789,132.29999999999998,225.9,-42.3,139436
0.04919641761747025,0.0009241005421389847,0.9891692454177576,-0.061035156,-0.045776367,0.091552734,129.9,221.1,-41.1,139723
0.050545945282787386,0.0024642681123706258,0.9880980718876458,-0.061035156,0.0076293945,-0.015258789,122.69999999999999,225.9,-41.699999999999996,140011
0.050361918782971415,0.0025258748151798915,0.988812187574387,0.061035156,0.0076293945,0.045776367,129.9,223.5,-41.1,140298
0.051036682615629984,0.0019098077870872351,0.9860747441085456,-0.0228881835,0.0076293945,-0.0228881835,132.29999999999998,225.9,-39.3,140586
0.04993252361673414,0.0006160670280926564,0.9866103308736015,0.0,-0.045776367,-0.061035156,127.5,221.1,-40.5,140873
0.04901239111765428,0.0006160670280926564,0.9894072839800048,0.1449584955,0.015258789,0.045776367,129.9,225.9,-40.5,141161
0.0493191019506809,0.0018482010842779694,0.9848250416567484,0.076293945,-0.061035156,0.106811523,132.29999999999998,223.5,-39.9,141447
0.04950312845049687,0.0028955150320354854,0.9886931682932635,0.076293945,-0.0534057615,0.106811523,125.1,218.7,-41.1,141740
0.050545945282787386,0.0016017742730409068,0.9895263032611283,0.0381469725,0.0076293945,-0.015258789,129.9,225.9,-41.1,142027
0.05097534044902466,0.0019098077870872351,0.9876219947631516,0.137329101,0.0,-0.045776367,132.29999999999998,225.9,-41.1,142314
0.05030057661636609,0.0003696402168555939,0.988812187574387,0.030517578,0.0076293945,0.076293945,125.1,223.5,-41.1,142602
0.05060728744939271,0.0003696402168555939,0.987800523684837,-0.030517578,-0.0228881835,0.030517578,129.9,225.9,-40.5,142889
0.04999386578333947,0.0009241005421389847,0.9880980718876458,0.0,0.015258789,0.0228881835,137.1,221.1,-41.699999999999996,143176
0.05177278861489388,0.003511582060128142,0.9872054272792192,-0.015258789,0.0076293945,0.015258789,137.1,221.1,-40.5,143463
0.0515887621150779,0.0011089206505667817,0.9873244465603428,0.0381469725,-0.045776367,0.0,127.5,223.5,-41.699999999999996,143750
0.04980983928352349,0.0006160670280926564,0.9892882646988812,0.0991821285,-0.106811523,0.061035156,129.9,228.29999999999998,-41.1,144039
0.049564470617102195,0.0012321340561853129,0.9879790526065223,0.137329101,-0.015258789,0.0381469725,137.1,225.9,-41.1,144327
0.04864433811802233,0.003326761951700345,0.9888716972149488,0.030517578,0.0,0.0228881835,122.69999999999999,230.7,-41.699999999999996,144615
0.04999386578333947,0.0031419418432725482,0.9883361104498929,0.198364257,-0.091552734,0.0,122.69999999999999,230.7,-42.9,144904
0.05085265611581401,-0.0001232134056185313,0.9870864079980957,0.076293945,0.0228881835,0.0076293945,129.9,225.9,-39.3,145196
0.0515887621150779,-0.0004928536224741252,0.9897643418233754,-0.030517578,-0.0076293945,-0.0076293945,134.7,221.1,-41.699999999999996,145484
0.051834130781499205,6.160670280926565e-05,0.9891692454177576,0.274658202,-0.0991821285,0.015258789,127.5,223.5,-40.5,145775
0.05128205128205128,-0.002094627895515032,0.9889312068555106,0.1602172845,-0.091552734,0.015258789,129.9,225.9,-41.1,146063
0.04864433811802233,0.0009857072449482504,0.9890502261366342,-0.0228881835,0.045776367,-0.030517578,127.5,225.9,-41.699999999999996,146350
0.05042326094957674,0.0015401675702316413,0.9860747441085456,-0.076293945,0.091552734,-0.0228881835,129.9,223.5,-40.5,146637
0.05048460311618207,0.0023410547067520947,0.9883361104498929,-0.0228881835,-0.061035156,-0.0228881835,129.9,221.1,-42.3,146924
0.05128205128205128,0.0008624938393297191,0.9905379671506784,0.015258789,-0.015258789,0.0991821285,127.5,221.1,-41.1,147211
0.05042326094957674,0.0014785608674223755,0.9897048321828136,0.0076293945,0.0076293945,0.15258789,127.5,225.9,-39.9,147499
0.05060728744939271,0.0020330211927057666,0.9866103308736015,0.0076293945,-0.015258789,0.030517578,127.5,223.5,-40.5,147785
0.05048460311618207,0.0022178413011335633,0.9889312068555106,0.076293945,-0.045776367,0.0686645505,129.9,223.5,-40.5,148072
0.04839896945160103,0.0035731887629374074,0.9873244465603428,0.030517578,0.0,0.0991821285,127.5,225.9,-41.1,148357
0.05097534044902466,-0.00043124691966485955,0.988038562247084,0.076293945,0.030517578,0.0534057615,132.29999999999998,221.1,-42.3,148643
0.05109802478223531,0.001047313947757516,0.9896453225422518,0.0228881835,0.045776367,0.0381469725,137.1,225.9,-42.9,148930
0.049564470617102195,0.0024026614095613605,0.9891097357771959,0.045776367,0.0076293945,-0.030517578,137.1,228.29999999999998,-39.9,149217
0.05079131394920869,0.0033883686545096107,0.9847060223756249,0.061035156,-0.0381469725,-0.030517578,125.1,230.7,-42.3,149503
0.049687154950312847,0.0005544603252833908,0.9884551297310165,0.137329101,-0.1144409175,0.061035156,132.29999999999998,221.1,-42.9,149792
0.049687154950312847,0.001047313947757516,0.9874434658414664,0.030517578,-0.0381469725,0.0228881835,127.5,225.9,-41.1,150081
0.04980983928352349,0.0011705273533760474,0.9891692454177576,-0.030517578,-0.030517578,0.0,122.69999999999999,223.5,-41.699999999999996,150369
0.05128205128205128,0.003326761951700345,0.9882766008093311,0.061035156,0.0076293945,0.0,134.7,223.5,-42.9,150655
0.05066862961599804,0.0028955150320354854,0.9882170911687693,0.030517578,-0.0534057615,0.0839233395,132.29999999999998,223.5,-40.5,150941
0.04993252361673414,0.0027106949236076886,0.9883956200904547,-0.0228881835,-0.0076293945,0.0381469725,129.9,221.1,-40.5,151226
0.05017789228315544,0.001971414489896501,0.9895263032611283,0.091552734,0.045776367,-0.0534057615,127.5,223.5,-39.9,151514
0.05011655011655012,0.0007392804337111878,0.9888716972149488,0.1144409175,-0.076293945,0.0076293945,125.1,228.29999999999998,-40.5,151800
0.051343393448656606,0.0028339083292262196,0.9883956200904547,-0.061035156,-0.0534057615,0.0,129.9,223.5,-42.3,152087
0.049380444117286225,-0.0005544603252833908,0.9860747441085456,0.076293945,-0.0381469725,-0.061035156,129.9,223.5,-39.3,152373
0.04974849711691817,0.0012321340561853129,0.9868483694358486,0.030517578,-0.045776367,0.015258789,134.7,223.5,-40.5,152661
0.0490737332842596,0.002094627895515032,0.9867293501547251,0.0,-0.0381469725,0.045776367,129.9,228.29999999999998,-39.9,152947
0.05066862961599804,0.0008624938393297191,0.988038562247084,0.0991821285,-0.030517578,0.0,132.29999999999998,221.1,-39.9,153234
0.04901239111765428,0.0004928536224741252,0.9867293501547251,0.0076293945,0.0,0.015258789,127.5,223.5,-42.3,153521
0.05042326094957674,0.0002464268112370626,0.9887526779338253,0.0381469725,0.091552734,-0.015258789,132.29999999999998,225.9,-39.9,153808
0.05042326094957674,0.0005544603252833908,0.9889312068555106,0.0381469725,0.0,0.0381469725,125.1,225.9,-40.5,154096
0.05097534044902466,0.00043124691966485955,0.9875624851225898,-0.0076293945,0.030517578,0.0228881835,134.7,225.9,-40.5,154383
0.05318365844681634,0.0021562345983242976,0.9884551297310165,0.0381469725,0.015258789,0.0991821285,134.7,225.9,-39.9,154670
0.05079131394920869,0.0041276490882207984,0.9879195429659605,0.045776367,0.061035156,0.015258789,134.7,223.5,-39.3,154957
0.05072997178260336,0.003018728437654017,0.9891097357771959,0.061035156,0.061035156,0.061035156,134.7,225.9,-41.1,155246
0.05048460311618207,0.002094627895515032,0.9876219947631516,0.0534057615,0.015258789,0.045776367,129.9,228.29999999999998,-39.9,155533
0.0490737332842596,0.002587481517989157,0.9868483694358486,-0.015258789,0.0,0.061035156,129.9,223.5,-42.3,155819
0.04999386578333947,0.0014785608674223755,0.9905974767912402,0.061035156,0.0,0.076293945,134.7,225.9,-41.1,156105
0.049380444117286225,0.0009857072449482504,0.9890502261366342,0.106811523,-0.0686645505,0.045776367,137.1,228.29999999999998,-40.5,156392
0.05171144644828855,0.002279448003942829,0.9888716972149488,0.061035156,0.0,-0.015258789,129.9,225.9,-42.3,156679
0.05165010428168323,0.0018482010842779694,0.9861937633896691,0.1144409175,0.0076293945,0.015258789,127.5,218.7,-41.699999999999996,156965
0.05042326094957674,0.003326761951700345,0.9898238514639371,0.0991821285,-0.030517578,-0.0381469725,129.9,223.5,-41.1,157252
0.04980983928352349,0.002279448003942829,0.9864913115924779,0.061035156,-0.015258789,0.030517578,132.29999999999998,221.1,-40.5,157538
0.05072997178260336,0.002094627895515032,0.9864318019519163,0.0,0.015258789,0.045776367,132.29999999999998,225.9,-41.1,157824
0.05072997178260336,0.00043124691966485955,0.9892882646988812,-0.015258789,-0.015258789,0.0228881835,134.7,223.5,-40.5,158110
0.049687154950312847,0.0011705273533760474,0.9863127826707927,0.0228881835,-0.0991821285,-0.045776367,132.29999999999998,221.1,-39.9,158397
0.05244755244755245,0.0021562345983242976,0.9860152344679838,-0.015258789,-0.030517578,0.0,127.5,228.29999999999998,-40.5,158682
0.050545945282787386,0.0014785608674223755,0.9871459176386574,-0.0534057615,-0.030517578,-0.0228881835,129.9,230.7,-40.5,158970
0.0490737332842596,0.0019098077870872351,0.9868483694358486,0.1144409175,0.030517578,0.0,127.5,225.9,-41.1,159255
0.04864433811802233,0.0012321340561853129,0.9884551297310165,0.0,-0.045776367,0.0228881835,134.7,223.5,-41.699999999999996,159541
0.05072997178260336,0.0028955150320354854,0.9901213996667461,0.0381469725,0.030517578,0.0076293945,127.5,228.29999999999998,-39.9,159827
0.05171144644828855,0.0014169541646131098,0.9876815044037134,-0.045776367,-0.0076293945,0.045776367,132.29999999999998,228.29999999999998,-39.3,160115
0.049564470617102195,0.0006160670280926564,0.9869078790764104,0.0839233395,-0.061035156,0.0839233395,129.9,221.1,-41.699999999999996,160402
0.049441786283891544,0.0017249876786594382,0.9865508212330397,-0.0228881835,-0.045776367,0.015258789,132.29999999999998,225.9,-40.5,160688
0.052140841614525826,0.002094627895515032,0.9854796477029278,-0.0381469725,-0.106811523,-0.015258789,127.5,228.29999999999998,-41.1,160973
0.049687154950312847,0.0021562345983242976,0.9883361104498929,0.0686645505,-0.0076293945,0.061035156,125.1,228.29999999999998,-40.5,161259
0.050545945282787386,0.0014169541646131098,0.987800523684837,0.0228881835,-0.030517578,-0.0076293945,125.1,223.5,-41.1,161546
0.04962581278370752,0.0015401675702316413,0.9889907164960724,-0.061035156,-0.0076293945,0.030517578,137.1,230.7,-42.3,161833
0.051220709115445955,0.0018482010842779694,0.987800523684837,0.0839233395,-0.030517578,0.091552734,132.29999999999998,230.7,-39.9,162119
0.04980983928352349,0.0023410547067520947,0.9883956200904547,0.0686645505,-0.015258789,0.0228881835,134.7,225.9,-40.5,162408
0.04980983928352349,0.0038196155741744703,0.9884551297310165,0.0839233395,0.0534057615,0.0076293945,129.9,225.9,-41.699999999999996,162694
0.05017789228315544,0.003326761951700345,0.9897643418233754,-0.0228881835,0.030517578,-0.0228881835,134.7,225.9,-41.1,162981
0.04980983928352349,0.0024026614095613605,0.9890502261366342,-0.076293945,-0.015258789,0.015258789,129.9,221.1,-39.9,163266
0.04974849711691817,0.002957121734844751,0.9885146393715782,-0.0076293945,0.030517578,-0.0076293945,137.1,223.5,-42.3,163552
0.049687154950312847,0.002279448003942829,0.985717686265175,0.1144409175,0.0228881835,0.030517578,125.1,230.7,-40.5,163837
0.04901239111765428,0.0008624938393297191,0.9892882646988812,0.106811523,-0.0534057615,0.0534057615,129.9,228.29999999999998,-42.3,164126
0.049564470617102195,0.0028955150320354854,0.9872054272792192,0.0686645505,0.0,0.015258789,129.9,223.5,-41.1,164411
0.05109802478223531,0.0011089206505667817,0.9894667936205666,0.0076293945,0.0686645505,-0.0991821285,132.29999999999998,223.5,-40.5,164697
0.05097534044902466,0.0004928536224741252,0.9879790526065223,0.045776367,-0.1144409175,0.030517578,127.5,223.5,-41.1,164983
0.05017789228315544,0.0008624938393297191,0.9891097357771959,0.045776367,-0.030517578,0.1144409175,134.7,225.9,-41.1,165269
0.05030057661636609,0.0017865943814687037,0.9883361104498929,0.030517578,-0.0534057615,0.0,127.5,223.5,-39.3,165555
0.05011655011655012,0.0016633809758501725,0.9869078790764104,-0.0076293945,-0.0839233395,0.015258789,129.9,218.7,-39.9,165842
0.05085265611581401,0.0035731887629374074,0.9879195429659605,-0.0534057615,-0.030517578,0.076293945,134.7,230.7,-40.5,166128
0.04913507545086492,0.0017865943814687037,0.9881575815282075,0.0076293945,-0.030517578,0.030517578,132.29999999999998,230.7,-39.9,166414
0.05091399828241933,0.0013553474618038443,0.9862532730302309,0.1144409175,0.061035156,0.015258789,132.29999999999998,228.29999999999998,-41.699999999999996,166700
0.04999386578333947,0.0005544603252833908,0.9886336586527017,0.030517578,0.076293945,0.045776367,129.9,225.9,-41.1,166988
0.049564470617102195,0.001971414489896501,0.9878600333253987,0.061035156,0.0076293945,0.0228881835,129.9,223.5,-39.9,167273
0.04950312845049687,0.0023410547067520947,0.9885146393715782,0.0839233395,-0.045776367,0.0839233395,134.7,218.7,-42.3,167560
0.05165010428168323,0.0006160670280926564,0.9877410140442752,0.091552734,0.0534057615,0.0,127.5,225.9,-41.699999999999996,167845
0.05238621028094712,0.0011705273533760474,0.9872054272792192,0.122070312,0.015258789,0.0381469725,132.29999999999998,228.29999999999998,-41.699999999999996,168132
0.05109802478223531,0.0024026614095613605,0.9858962151868603,-0.0534057615,-0.0991821285,0.0076293945,132.29999999999998,233.1,-40.5,168417
0.049687154950312847,0.0022178413011335633,0.9873244465603428,-0.045776367,-0.0991821285,0.0839233395,127.5,228.29999999999998,-41.1,168703
0.052018157281315175,0.0012321340561853129,0.9892882646988812,0.1449584955,0.0534057615,0.0,127.5,223.5,-39.9,168988
0.05011655011655012,0.0035731887629374074,0.987264936919781,-0.015258789,0.0228881835,0.0076293945,127.5,225.9,-39.9,169274
0.05146607778186726,0.002957121734844751,0.9867888597952869,0.030517578,-0.045776367,0.0381469725,129.9,223.5,-42.3,169559
0.04993252361673414,0.001971414489896501,0.9886931682932635,0.0228881835,-0.061035156,0.0381469725,134.7,225.9,-41.699999999999996,169845
0.04950312845049687,0.0011705273533760474,0.9861937633896691,-0.0534057615,-0.076293945,0.0686645505,127.5,230.7,-40.5,170131
0.04950312845049687,0.0032035485460818135,0.9884551297310165,0.045776367,-0.030517578,0.0381469725,132.29999999999998,225.9,-41.699999999999996,170418
0.05140473561526193,0.0008624938393297191,0.9883361104498929,0.0076293945,-0.0534057615,-0.015258789,125.1,225.9,-39.9,170704
0.04980983928352349,0.0024642681123706258,0.9865508212330397,0.0381469725,-0.076293945,-0.015258789,134.7,223.5,-41.699999999999996,170990
0.050055207949944794,0.001047313947757516,0.9863722923113545,0.015258789,0.122070312,0.030517578,129.9,225.9,-40.5,171275
0.05140473561526193,0.0022178413011335633,0.9875624851225898,0.045776367,0.0534057615,0.030517578,122.69999999999999,221.1,-40.5,171561
0.04901239111765428,0.0014169541646131098,0.9879195429659605,-0.030517578,0.0381469725,0.0534057615,129.9,216.29999999999998,-41.1,171846
0.047785547785547784,0.0016633809758501725,0.9883956200904547,0.045776367,-0.030517578,0.045776367,125.1,223.5,-40.5,172132
0.04864433811802233,0.0017249876786594382,0.9856581766246132,0.1144409175,0.0,0.0228881835,129.9,221.1,-41.1,172417
0.04980983928352349,0.001971414489896501,0.9865508212330397,0.045776367,-0.030517578,-0.0076293945,129.9,225.9,-40.5,172703
0.05085265611581401,0.001047313947757516,0.9901809093073077,-0.0381469725,-0.015258789,0.0686645505,129.9,228.29999999999998,-42.3,172991
0.05011655011655012,0.002957121734844751,0.9910140442751726,-0.106811523,-0.0076293945,-0.0076293945,122.69999999999999,228.29999999999998,-40.5,173280
0.049380444117286225,0.0015401675702316413,0.9876219947631516,-0.015258789,-0.0686645505,-0.015258789,132.29999999999998,228.29999999999998,-41.699999999999996,173566
0.04974849711691817,0.0030803351404632825,0.9871459176386574,0.122070312,-0.0991821285,0.045776367,129.9,225.9,-41.699999999999996,173854
0.050239234449760764,0.0018482010842779694,0.9889907164960724,0.1907348625,0.0381469725,0.0228881835,129.9,221.1,-38.699999999999996,174139
0.04999386578333947,0.0023410547067520947,0.9888716972149488,0.0991821285,0.106811523,0.0228881835,134.7,223.5,-39.9,174425
0.05030057661636609,0.0031419418432725482,0.9869078790764104,0.061035156,0.030517578,0.0228881835,132.29999999999998,225.9,-39.3,174710
0.051036682615629984,6.160670280926565e-05,0.9854796477029278,-0.030517578,0.0839233395,0.0686645505,127.5,218.7,-41.1,174997
0.05066862961599804,0.001971414489896501,0.9885146393715782,0.0839233395,-0.0076293945,0.137329101,132.29999999999998,223.5,-40.5,175284
0.0493191019506809,0.002094627895515032,0.9886931682932635,0.030517578,-0.0686645505,0.030517578,129.9,223.5,-39.9,175571
0.050239234449760764,0.003634795465746673,0.9868483694358486,0.0228881835,-0.091552734,0.0686645505,132.29999999999998,228.29999999999998,-41.1,175866
0.05085265611581401,0.0005544603252833908,0.9902404189478695,-0.015258789,0.015258789,-0.015258789,132.29999999999998,230.7,-41.1,176156
0.050239234449760764,0.002279448003942829,0.9869078790764104,-0.0228881835,-0.0839233395,0.0076293945,129.9,228.29999999999998,-40.5,176442
0.05171144644828855,0.0027106949236076886,0.9861342537491073,0.076293945,-0.106811523,0.0,125.1,225.9,-41.1,176731
0.052324868114341797,0.0020330211927057666,0.9866698405141633,0.167846679,0.0228881835,-0.0076293945,132.29999999999998,218.7,-40.5,177017
0.050239234449760764,0.0022178413011335633,0.9880980718876458,0.030517578,0.030517578,-0.0076293945,132.29999999999998,223.5,-41.1,177304
0.05030057661636609,0.002094627895515032,0.985182099500119,0.045776367,0.0076293945,-0.076293945,129.9,230.7,-41.699999999999996,177590
0.04974849711691817,0.0011089206505667817,0.9861342537491073,0.0534057615,-0.076293945,0.015258789,127.5,225.9,-39.9,177876
0.05140473561526193,0.0024026614095613605,0.987502975482028,0.045776367,-0.122070312,-0.0076293945,132.29999999999998,225.9,-42.3,178162
0.05097534044902466,0.0013553474618038443,0.9876815044037134,0.0991821285,0.0839233395,0.0,139.5,228.29999999999998,-41.1,178449
0.051159366948840636,0.0006776737309019222,0.9863127826707927,0.0534057615,0.045776367,0.030517578,132.29999999999998,225.9,-41.699999999999996,178734
0.04913507545086492,0.002094627895515032,0.9892287550583194,0.106811523,-0.0381469725,0.061035156,125.1,223.5,-41.699999999999996,179021
0.04987118145012882,0.004066042385411533,0.9874434658414664,0.091552734,-0.0534057615,0.0686645505,137.1,225.9,-40.5,179307
0.0493191019506809,0.0022178413011335633,0.9865508212330397,-0.0228881835,0.0076293945,0.0381469725,134.7,228.29999999999998,-41.699999999999996,179594
0.04987118145012882,-0.0001232134056185313,0.9878600333253987,0.015258789,-0.0534057615,0.0534057615,127.5,225.9,-41.699999999999996,179879
0.050361918782971415,0.00043124691966485955,0.989347774339443,0.0991821285,-0.0228881835,0.015258789,134.7,223.5,-39.9,180166
0.050545945282787386,0.001047313947757516,0.987502975482028,0.0381469725,0.0,0.061035156,129.9,223.5,-39.9,180451
0.050361918782971415,0.0030803351404632825,0.9895858129016901,0.1602172845,-0.045776367,-0.076293945,129.9,230.7,-42.9,180737
0.05042326094957674,0.0016633809758501725,0.988812187574387,0.122070312,-0.076293945,-0.0534057615,132.29999999999998,228.29999999999998,-41.1,181022
0.0490737332842596,-0.001047313947757516,0.988812187574387,0.045776367,-0.0686645505,-0.015258789,129.9,225.9,-41.699999999999996,181308
0.04796957428536376,0.0011089206505667817,0.9897643418233754,0.015258789,0.0,0.0991821285,134.7,223.5,-42.9,181596
0.04913507545086492,0.0034499753573188764,0.9886336586527017,0.1754760735,-0.0534057615,-0.030517578,132.29999999999998,218.7,-40.5,181882
0.05109802478223531,0.0009241005421389847,0.9879790526065223,0.0839233395,-0.076293945,-0.0686645505,132.29999999999998,230.7,-40.5,182167
0.05079131394920869,0.0013553474618038443,0.9879195429659605,0.0381469725,-0.0534057615,0.0076293945,139.5,221.1,-39.9,182453
0.05324500061342167,0.0015401675702316413,0.9884551297310165,0.106811523,0.0076293945,-0.0228881835,132.29999999999998,223.5,-40.5,182739
0.052324868114341797,0.0002464268112370626,0.9870864079980957,0.015258789,-0.1144409175,-0.0686645505,134.7,228.29999999999998,-40.5,183025
0.04919641761747025,0.0023410547067520947,0.989347774339443,0.1754760735,-0.045776367,-0.076293945,125.1,223.5,-42.3,183310
0.04827628511839038,0.003942828979793002,0.9877410140442752,0.076293945,0.015258789,-0.045776367,129.9,225.9,-39.9,183596
0.04913507545086492,0.003326761951700345,0.9875624851225898,0.045776367,-0.015258789,-0.061035156,137.1,228.29999999999998,-41.1,183881
0.04962581278370752,0.002649088220798423,0.9858367055462985,0.076293945,0.0076293945,-0.0381469725,134.7,218.7,-41.699999999999996,184167
0.05011655011655012,0.003326761951700345,0.9849440609378719,0.030517578,0.015258789,0.0076293945,127.5,233.1,-41.1,184452
0.051159366948840636,0.0021562345983242976,0.9868483694358486,0.0534057615,-0.045776367,0.061035156,132.29999999999998,225.9,-40.5,184739
0.05091399828241933,0.0027723016264169544,0.9869673887169722,0.0686645505,0.0076293945,0.0,129.9,228.29999999999998,-41.699999999999996,185024
0.05079131394920869,0.002957121734844751,0.9861937633896691,0.045776367,0.015258789,0.0076293945,132.29999999999998,221.1,-39.9,185311
0.049564470617102195,0.0021562345983242976,0.988038562247084,-0.1449584955,0.015258789,0.061035156,132.29999999999998,225.9,-40.5,185596
0.05109802478223531,0.0018482010842779694,0.9878600333253987,0.091552734,0.0076293945,0.0,137.1,228.29999999999998,-42.3,185882
0.048889706784443626,0.0027723016264169544,0.9885741490121399,0.0,0.0076293945,-0.0076293945,134.7,228.29999999999998,-42.3,186168
0.05011655011655012,0.003326761951700345,0.9900618900261843,0.045776367,-0.0076293945,-0.0076293945,125.1,228.29999999999998,-40.5,186455
0.05146607778186726,0.0035731887629374074,0.988812187574387,0.045776367,-0.015258789,0.061035156,139.5,221.1,-40.5,186740
0.05066862961599804,0.0021562345983242976,0.9862532730302309,-0.0228881835,-0.0534057615,0.0076293945,134.7,223.5,-40.5,187026
0.04895104895104895,0.0008008871365204534,0.9885741490121399,0.015258789,-0.076293945,-0.0534057615,137.1,225.9,-42.3,187311
0.04950312845049687,-0.00043124691966485955,0.9894667936205666,-0.0381469725,0.0381469725,0.0,129.9,225.9,-40.5,187597
0.050239234449760764,-0.0015401675702316413,0.991430611759105,0.061035156,-0.076293945,-0.0076293945,127.5,228.29999999999998,-40.5,187882
0.05091399828241933,0.004004435682602267,0.9874434658414664,0.0839233395,-0.0076293945,-0.0076293945,132.29999999999998,228.29999999999998,-39.9,188169
0.051159366948840636,0.0021562345983242976,0.9897048321828136,0.1754760735,-0.0534057615,-0.0534057615,132.29999999999998,228.29999999999998,-42.3,188454
0.05146607778186726,0.002094627895515032,0.9918471792430373,0.1296997065,-0.0228881835,0.091552734,137.1,223.5,-41.1,188741
0.05287694761378972,0.0016017742730409068,0.9863722923113545,-0.0381469725,-0.015258789,0.030517578,125.1,225.9,-40.5,189026
0.05165010428168323,-0.0002464268112370626,0.9864318019519163,0.0,-0.061035156,0.183105468,132.29999999999998,221.1,-39.3,189313
0.04754017911912649,0.0032035485460818135,0.9851225898595573,0.045776367,-0.061035156,0.0991821285,137.1,218.7,-39.9,189598
0.046804073119862594,0.004990142927550518,0.9865508212330397,0.030517578,-0.0839233395,-0.0228881835,127.5,223.5,-39.9,189884
0.051159366948840636,0.0013553474618038443,0.9880980718876458,-0.076293945,-0.0381469725,0.0381469725,134.7,221.1,-40.5,190169
0.04846031161820635,0.0013553474618038443,0.9876219947631516,-0.045776367,-0.015258789,-0.015258789,139.5,230.7,-41.699999999999996,190457
0.04839896945160103,0.0016017742730409068,0.9858367055462985,-0.015258789,-0.061035156,0.0381469725,134.7,228.29999999999998,-40.5,190742
0.05017789228315544,0.001971414489896501,0.9879195429659605,0.0076293945,-0.0534057615,0.0381469725,132.29999999999998,225.9,-40.5,191029
0.049687154950312847,0.0014785608674223755,0.9884551297310165,-0.076293945,0.0,-0.0076293945,137.1,221.1,-41.1,191314
0.049687154950312847,0.0016633809758501725,0.9854796477029278,0.0,-0.0381469725,-0.0076293945,137.1,225.9,-41.1,191600
0.05042326094957674,0.0009857072449482504,0.9872054272792192,0.0228881835,-0.0381469725,0.061035156,129.9,223.5,-41.699999999999996,191885
0.05165010428168323,0.0020330211927057666,0.9864318019519163,-0.0076293945,-0.0076293945,0.076293945,132.29999999999998,223.5,-39.9,192171
0.050361918782971415,0.00425086249383933,0.9879195429659605,0.061035156,-0.0839233395,0.137329101,129.9,225.9,-41.1,192456
0.05060728744939271,0.0027106949236076886,0.9889312068555106,0.045776367,-0.030517578,0.061035156,127.5,228.29999999999998,-40.5,192742
0.05391976444608024,-0.0009857072449482504,0.9869673887169722,0.045776367,-0.0991821285,0.0991821285,129.9,228.29999999999998,-41.1,193027
0.04987118145012882,0.00043124691966485955,0.9874434658414664,0.091552734,0.015258789,0.091552734,127.5,228.29999999999998,-40.5,193313
0.04864433811802233,0.0021562345983242976,0.9902999285884313,0.0381469725,0.0228881835,0.0534057615,129.9,221.1,-40.5,193599
0.048092258618574406,0.0019098077870872351,0.9898833611044989,0.0991821285,0.0,0.030517578,132.29999999999998,225.9,-41.1,193885
0.04987118145012882,0.004435682602267127,0.9873839562009046,0.061035156,-0.061035156,-0.0381469725,125.1,225.9,-39.3,194170
0.04895104895104895,6.160670280926565e-05,0.9885146393715782,0.0686645505,-0.0381469725,0.045776367,129.9,225.9,-41.1,194456
0.04962581278370752,0.0013553474618038443,0.9884551297310165,0.015258789,0.015258789,-0.0076293945,122.69999999999999,225.9,-39.9,194742
0.05091399828241933,0.0005544603252833908,0.9883361104498929,0.0534057615,0.0228881835,0.0381469725,132.29999999999998,225.9,-41.699999999999996,195028
0.05275426328057907,0.0004928536224741252,0.988038562247084,0.091552734,0.0,0.0686645505,129.9,223.5,-41.1,195314
0.04950312845049687,0.0014169541646131098,0.9867293501547251,0.0991821285,-0.0686645505,0.1602172845,134.7,225.9,-41.699999999999996,195600
0.0493191019506809,0.0023410547067520947,0.9907760057129255,0.030517578,-0.030517578,0.0839233395,137.1,228.29999999999998,-40.5,195886
0.04815360078517973,0.003511582060128142,0.9861937633896691,0.0076293945,0.015258789,0.0228881835,127.5,228.29999999999998,-41.699999999999996,196172
0.04895104895104895,0.0028339083292262196,0.9881575815282075,-0.030517578,-0.0076293945,0.045776367,134.7,223.5,-40.5,196457
0.05017789228315544,0.0034499753573188764,0.9890502261366342,0.122070312,-0.030517578,0.030517578,134.7,225.9,-42.9,196743
0.0515887621150779,0.002587481517989157,0.9872054272792192,0.076293945,-0.045776367,0.045776367,137.1,223.5,-40.5,197028
0.051159366948840636,0.0017865943814687037,0.9898238514639371,0.0076293945,0.0,0.0,129.9,223.5,-42.3,197319
0.05079131394920869,0.00018482010842779694,0.9909545346346108,0.030517578,0.045776367,0.030517578,125.1,228.29999999999998,-41.699999999999996,197604
0.05079131394920869,0.001047313947757516,0.9879195429659605,0.061035156,-0.0228881835,0.030517578,132.29999999999998,218.7,-40.5,197890
0.04950312845049687,0.0018482010842779694,0.9873839562009046,0.030517578,-0.015258789,0.0228881835,132.29999999999998,228.29999999999998,-40.5,198175
0.04815360078517973,0.0024026614095613605,0.9879790526065223,0.0076293945,-0.045776367,0.045776367,129.9,230.7,-39.9,198462
0.048767022451232975,0.003696402168555939,0.9857771959057368,0.0839233395,0.0228881835,0.0839233395,127.5,218.7,-40.5,198750
0.048705680284627656,0.0025258748151798915,0.9892287550583194,0.0991821285,-0.0228881835,0.076293945,129.9,223.5,-40.5,199036
0.05091399828241933,0.0012937407589945786,0.9873244465603428,0.030517578,-0.0228881835,0.091552734,125.1,221.1,-40.5,199323
0.05195681511470985,0.0009241005421389847,0.9900023803856225,0.091552734,0.061035156,0.0228881835,134.7,221.1,-40.5,199609
0.049441786283891544,0.0024642681123706258,0.9898238514639371,-0.076293945,-0.015258789,-0.0686645505,132.29999999999998,225.9,-41.699999999999996,199895
0.05091399828241933,0.0001232134056185313,0.9892287550583194,-0.015258789,-0.1296997065,0.0228881835,129.9,223.5,-41.699999999999996,200182
0.050055207949944794,0.0021562345983242976,0.9874434658414664,-0.015258789,0.091552734,0.030517578,139.5,225.9,-41.1,200467
0.04895104895104895,0.0018482010842779694,0.9849440609378719,-0.015258789,-0.045776367,0.015258789,132.29999999999998,233.1,-38.699999999999996,200753
0.04821494295178506,0.0041276490882207984,0.9885741490121399,-0.1296997065,-0.030517578,0.0076293945,129.9,225.9,-41.1,201038
0.052692921113973744,0.0,0.988812187574387,0.122070312,0.0534057615,0.106811523,134.7,225.9,-41.699999999999996,201325
0.0525702367807631,-0.00043124691966485955,0.9897048321828136,0.0991821285,-0.015258789,0.106811523,137.1,225.9,-42.3,201610
0.050361918782971415,0.002649088220798423,0.9901809093073077,0.045776367,-0.045776367,0.030517578,132.29999999999998,223.5,-40.5,201896
0.05017789228315544,0.0038196155741744703,0.9900023803856225,-0.0534057615,0.030517578,0.0076293945,132.29999999999998,221.1,-41.699999999999996,202181
0.04735615261931051,0.003326761951700345,0.9882766008093311,0.030517578,-0.015258789,0.0381469725,129.9,225.9,-41.1,202468
0.04729481045270519,-6.160670280926565e-05,0.9897643418233754,0.0381469725,0.0076293945,0.122070312,134.7,225.9,-39.3,202753
0.049564470617102195,0.0017249876786594382,0.989347774339443,0.030517578,0.0381469725,0.0381469725,129.9,228.29999999999998,-41.699999999999996,203039
0.04913507545086492,0.0033883686545096107,0.988812187574387,-0.0381469725,-0.0076293945,-0.0228881835,125.1,223.5,-42.3,203325
0.05146607778186726,0.0035731887629374074,0.9889907164960724,0.045776367,-0.0839233395,-0.0381469725,125.1,223.5,-39.9,203611
0.04993252361673414,0.0009241005421389847,0.9888716972149488,0.045776367,-0.0686645505,-0.0381469725,125.1,218.7,-42.3,203897
0.05128205128205128,0.0011705273533760474,0.9880980718876458,0.076293945,0.0686645505,0.0534057615,125.1,225.9,-42.3,204184
0.05189547294810453,0.0011705273533760474,0.9898238514639371,0.1449584955,-0.0076293945,0.045776367,134.7,223.5,-41.699999999999996,204469
0.048767022451232975,-6.160670280926565e-05,0.9891097357771959,0.0534057615,-0.061035156,-0.0381469725,137.1,228.29999999999998,-40.5,204755
0.048705680284627656,0.0015401675702316413,0.9884551297310165,0.0686645505,-0.0076293945,0.0228881835,127.5,225.9,-41.1,205043
0.049687154950312847,0.002094627895515032,0.9876815044037134,0.106811523,-0.030517578,0.0991821285,134.7,233.1,-41.1,205331
0.049441786283891544,-0.0001232134056185313,0.9916091406807903,0.1144409175,-0.0839233395,0.076293945,129.9,233.1,-41.1,205615
0.049564470617102195,0.0027106949236076886,0.9886931682932635,0.1144409175,-0.015258789,0.015258789,127.5,230.7,-41.699999999999996,205902
0.0490737332842596,0.0012937407589945786,0.9881575815282075,0.0686645505,0.0076293945,-0.0381469725,122.69999999999999,223.5,-41.1,206187
0.04913507545086492,0.0017865943814687037,0.9883956200904547,0.030517578,-0.0839233395,0.030517578,127.5,216.29999999999998,-41.1,206475
0.049257759784075573,0.002279448003942829,0.9891097357771959,0.0839233395,-0.0076293945,0.0,125.1,221.1,-40.5,206760
0.05030057661636609,0.0014169541646131098,0.9895858129016901,0.0381469725,-0.0228881835,-0.015258789,129.9,228.29999999999998,-41.1,207046
0.05066862961599804,0.003634795465746673,0.9890502261366342,0.076293945,-0.061035156,0.030517578,127.5,225.9,-41.1,207333
0.050545945282787386,-0.0008008871365204534,0.9889312068555106,-0.0228881835,-0.030517578,0.0839233395,129.9,218.7,-39.9,207619
0.04987118145012882,0.0030803351404632825,0.9890502261366342,-0.0076293945,-0.0228881835,0.076293945,127.5,225.9,-41.699999999999996,207906
0.050239234449760764,0.003942828979793002,0.9886931682932635,0.091552734,0.0,0.076293945,129.9,223.5,-41.1,208192
0.05091399828241933,0.0009857072449482504,0.9894072839800048,0.015258789,0.0228881835,0.0686645505,129.9,223.5,-40.5,208477
0.049564470617102195,0.0023410547067520947,0.9870864079980957,0.1144409175,-0.015258789,0.061035156,129.9,221.1,-39.3,208764
0.049687154950312847,0.0033883686545096107,0.9904784575101166,0.091552734,0.0381469725,0.015258789,127.5,223.5,-40.5,209050
0.04901239111765428,0.0004928536224741252,0.9883361104498929,0.0076293945,-0.0076293945,0.0076293945,127.5,223.5,-40.5,209336
0.05072997178260336,0.0024026614095613605,0.9898833611044989,-0.091552734,-0.045776367,0.061035156,132.29999999999998,218.7,-41.699999999999996,209621
0.04974849711691817,0.0025258748151798915,0.988812187574387,0.0,0.0,-0.0076293945,137.1,228.29999999999998,-41.1,209910
0.05048460311618207,0.0014785608674223755,0.9896453225422518,0.0534057615,0.030517578,0.122070312,137.1,233.1,-39.9,210195
0.05079131394920869,-6.160670280926565e-05,0.9901809093073077,0.0,-0.045776367,-0.0076293945,129.9,233.1,-40.5,210481
0.04839896945160103,0.0011705273533760474,0.9887526779338253,0.0381469725,0.0076293945,-0.030517578,129.9,221.1,-39.3,210767
0.048889706784443626,-0.0006160670280926564,0.9897048321828136,0.030517578,-0.0076293945,0.045776367,129.9,228.29999999999998,-41.1,211055
0.05030057661636609,0.0013553474618038443,0.9877410140442752,0.076293945,-0.030517578,0.0534057615,127.5,225.9,-41.699999999999996,211341
0.04980983928352349,0.0011705273533760474,0.9869078790764104,0.076293945,0.0,-0.0228881835,129.9,228.29999999999998,-41.699999999999996,211629
0.04846031161820635,0.0027106949236076886,0.9886336586527017,0.0381469725,-0.061035156,0.030517578,137.1,223.5,-42.9,211915
0.05042326094957674,0.0022178413011335633,0.990656986431802,0.015258789,0.0,-0.0686645505,129.9,228.29999999999998,-39.9,212201
0.05017789228315544,0.0011089206505667817,0.9902999285884313,0.0076293945,-0.061035156,0.015258789,132.29999999999998,225.9,-39.3,212488
0.04962581278370752,0.0017865943814687037,0.9902999285884313,0.045776367,0.0076293945,-0.0686645505,125.1,223.5,-39.3,212774
0.04974849711691817,0.002957121734844751,0.9905379671506784,0.0534057615,-0.0839233395,-0.045776367,129.9,225.9,-41.1,213059
0.04962581278370752,0.0012937407589945786,0.990895024994049,-0.015258789,-0.0991821285,0.0,137.1,230.7,-40.5,213345
0.05140473561526193,0.001047313947757516,0.9877410140442752,-0.076293945,-0.0228881835,0.061035156,125.1,221.1,-41.699999999999996,213631
0.04980983928352349,0.0003696402168555939,0.987800523684837,-0.0381469725,-0.015258789,0.0076293945,127.5,230.7,-41.1,213918
0.05091399828241933,0.0006776737309019222,0.9902404189478695,0.045776367,-0.0381469725,-0.0076293945,129.9,221.1,-40.5,214204
0.049687154950312847,0.0004928536224741252,0.9878600333253987,0.0,-0.030517578,0.0686645505,132.29999999999998,228.29999999999998,-40.5,214491
0.04987118145012882,0.0008008871365204534,0.9899428707450607,0.015258789,0.0228881835,0.030517578,125.1,228.29999999999998,-41.1,214777
0.04987118145012882,0.001971414489896501,0.987800523684837,0.122070312,-0.0534057615,0.030517578,127.5,223.5,-41.1,215065
0.04950312845049687,0.0012321340561853129,0.9882766008093311,0.122070312,0.045776367,0.015258789,132.29999999999998,225.9,-39.9,215351
0.05030057661636609,0.0011089206505667817,0.988812187574387,0.061035156,-0.015258789,0.0076293945,129.9,218.7,-41.699999999999996,215637
0.049380444117286225,0.0014785608674223755,0.9904189478695549,0.045776367,0.0381469725,-0.045776367,127.5,223.5,-41.1,215923
0.05030057661636609,0.0013553474618038443,0.9892287550583194,-0.045776367,0.015258789,0.0228881835,137.1,221.1,-41.699999999999996,216210
0.05011655011655012,0.0016017742730409068,0.9882170911687693,0.0839233395,-0.015258789,0.076293945,129.9,225.9,-40.5,216495
0.05079131394920869,0.0018482010842779694,0.988038562247084,0.137329101,0.0076293945,0.0076293945,129.9,228.29999999999998,-41.1,216782
0.051159366948840636,-0.0003696402168555939,0.9889907164960724,0.076293945,-0.0228881835,-0.045776367,127.5,228.29999999999998,-40.5,217070
0.05146607778186726,0.0028955150320354854,0.987800523684837,0.0839233395,-0.061035156,0.122070312,137.1,233.1,-41.1,217356
0.04999386578333947,0.0023410547067520947,0.9879195429659605,0.0839233395,-0.0228881835,0.0839233395,134.7,223.5,-38.1,217642
0.04999386578333947,0.0008008871365204534,0.9867888597952869,0.1144409175,-0.0381469725,0.0,132.29999999999998,225.9,-39.9,217930
0.04846031161820635,0.004004435682602267,0.9876219947631516,0.0381469725,-0.0991821285,0.0076293945,129.9,225.9,-39.9,218215
0.04846031161820635,0.0016017742730409068,0.9883361104498929,0.0076293945,-0.0228881835,0.122070312,127.5,225.9,-41.699999999999996,218501
0.05220218378113115,0.002094627895515032,0.988038562247084,0.0534057615,-0.0076293945,0.076293945,127.5,223.5,-39.9,218787
0.05060728744939271,0.0005544603252833908,0.9889907164960724,0.0,0.0,0.045776367,134.7,221.1,-40.5,219072
0.05079131394920869,0.00043124691966485955,0.9873244465603428,0.0686645505,0.0228881835,0.0534057615,129.9,223.5,-40.5,219358
0.04993252361673414,0.0024642681123706258,0.9901213996667461,0.045776367,0.0076293945,0.0381469725,127.5,230.7,-41.1,219645
0.04895104895104895,0.001047313947757516,0.9881575815282075,0.0534057615,-0.0381469725,-0.015258789,134.7,230.7,-41.1,219930
0.04747883695252116,0.001047313947757516,0.9867888597952869,0.091552734,-0.015258789,0.030517578,132.29999999999998,228.29999999999998,-39.3,220216
0.050545945282787386,0.002587481517989157,0.9864318019519163,0.045776367,-0.0534057615,-0.045776367,129.9,228.29999999999998,-41.1,220501
0.04974849711691817,0.0020330211927057666,0.990656986431802,0.0228881835,-0.0381469725,0.091552734,129.9,221.1,-39.9,220788
0.050239234449760764,0.0023410547067520947,0.988038562247084,0.0839233395,-0.0839233395,0.030517578,132.29999999999998,225.9,-40.5,221073
0.049441786283891544,0.0012321340561853129,0.9901213996667461,-0.0076293945,-0.015258789,-0.045776367,127.5,223.5,-41.1,221359
0.052018157281315175,0.0020330211927057666,0.9898238514639371,-0.061035156,-0.0228881835,-0.0076293945,127.5,225.9,-39.9,221644
0.051220709115445955,0.0014785608674223755,0.9901809093073077,0.0,0.015258789,0.045776367,129.9,223.5,-39.3,221930
0.05017789228315544,0.0023410547067520947,0.9895858129016901,0.030517578,-0.137329101,0.015258789,127.5,228.29999999999998,-44.1,222215
0.05048460311618207,0.0008624938393297191,0.9890502261366342,0.0,-0.0076293945,0.045776367,129.9,225.9,-41.1,222501
0.050239234449760764,0.0017865943814687037,0.9864318019519163,-0.0381469725,0.0076293945,0.0228881835,129.9,223.5,-39.9,222786
0.05048460311618207,0.0003696402168555939,0.9869078790764104,0.0228881835,0.0,0.0,129.9,225.9,-40.5,223073
0.049257759784075573,-0.0001232134056185313,0.9858367055462985,0.076293945,-0.045776367,0.0228881835,132.29999999999998,225.9,-41.1,223357
0.050361918782971415,0.0007392804337111878,0.9878600333253987,0.061035156,-0.015258789,0.0228881835,127.5,223.5,-41.699999999999996,223644
0.051834130781499205,0.00043124691966485955,0.9881575815282075,0.076293945,-0.0381469725,0.045776367,132.29999999999998,225.9,-42.3,223929
0.04974849711691817,0.0003080335140463282,0.9885146393715782,0.0686645505,-0.045776367,0.061035156,125.1,223.5,-41.1,224216
0.049441786283891544,0.0028955150320354854,0.9898833611044989,-0.045776367,-0.0534057615,0.0228881835,129.9,230.7,-39.9,224501
0.04895104895104895,0.001047313947757516,0.9896453225422518,0.076293945,-0.076293945,-0.2212524405,127.5,221.1,-39.3,224787
0.05244755244755245,0.0012321340561853129,0.9863127826707927,0.015258789,-0.122070312,-0.2517700185,127.5,230.7,-39.9,225072
0.05030057661636609,0.003018728437654017,0.9889907164960724,0.0228881835,0.015258789,0.0991821285,132.29999999999998,228.29999999999998,-41.699999999999996,225359
0.050055207949944794,-0.0012321340561853129,0.9885146393715782,-0.076293945,-0.030517578,-0.106811523,132.29999999999998,225.9,-41.1,225645
0.05079131394920869,0.004866929521931986,0.988812187574387,0.0228881835,-0.0228881835,0.0228881835,129.9,223.5,-42.3,225933
0.049441786283891544,-0.0012937407589945786,0.9885741490121399,0.122070312,-0.106811523,0.137329101,127.5,223.5,-42.3,226219
0.04987118145012882,0.0011705273533760474,0.9902999285884313,0.106811523,0.0076293945,0.198364257,134.7,221.1,-42.3,226505
0.04974849711691817,0.0018482010842779694,0.9883956200904547,0.076293945,0.0228881835,0.2059936515,132.29999999999998,228.29999999999998,-39.9,226790
0.05079131394920869,0.00523656973878758,0.9898238514639371,-0.0381469725,-0.0228881835,0.198364257,129.9,223.5,-42.3,227077
0.05072997178260336,-0.0017865943814687037,0.9888716972149488,-0.061035156,-0.015258789,0.183105468,132.29999999999998,223.5,-41.699999999999996,227361
0.05048460311618207,0.003696402168555939,0.9889312068555106,-0.0076293945,-0.015258789,-0.1296997065,129.9,228.29999999999998,-40.5,227648
0.051036682615629984,-6.160670280926565e-05,0.9900618900261843,0.0991821285,0.0,-0.091552734,129.9,221.1,-41.1,227934
0.050545945282787386,0.0004928536224741252,0.9879790526065223,0.030517578,0.0076293945,0.0991821285,129.9,221.1,-41.1,228220
0.05171144644828855,0.002649088220798423,0.9875624851225898,0.0534057615,-0.076293945,0.091552734,129.9,230.7,-41.699999999999996,228505
0.051036682615629984,0.0007392804337111878,0.9884551297310165,0.061035156,-0.061035156,0.030517578,129.9,225.9,-42.9,228792
0.051834130781499205,0.0025258748151798915,0.9867293501547251,0.091552734,-0.0228881835,-0.0228881835,132.29999999999998,223.5,-42.3,229077
0.047908232118758436,0.0023410547067520947,0.9881575815282075,0.061035156,0.0,-0.015258789,132.29999999999998,233.1,-40.5,229363
0.0515887621150779,0.0030803351404632825,0.9897048321828136,0.0076293945,-0.030517578,0.0839233395,125.1,228.29999999999998,-40.5,229648
0.05097534044902466,0.0017249876786594382,0.9885146393715782,-0.091552734,0.045776367,-0.0228881835,129.9,225.9,-40.5,229934
0.051159366948840636,0.0003696402168555939,0.9876815044037134,0.1296997065,-0.076293945,-0.0076293945,127.5,221.1,-41.1,230219
0.05060728744939271,0.0007392804337111878,0.9898833611044989,0.0534057615,-0.030517578,0.0839233395,129.9,228.29999999999998,-40.5,230505
0.05048460311618207,0.0028955150320354854,0.9877410140442752,0.0534057615,0.0534057615,0.0381469725,132.29999999999998,221.1,-38.699999999999996,230790
0.05011655011655012,0.002094627895515032,0.9885741490121399,-0.061035156,0.0381469725,0.0991821285,132.29999999999998,228.29999999999998,-39.9,231077
0.050361918782971415,0.0028955150320354854,0.988812187574387,0.0076293945,0.0,-0.0686645505,129.9,218.7,-40.5,231362
0.0525702367807631,0.0004928536224741252,0.9889312068555106,-0.015258789,-0.106811523,-0.0686645505,132.29999999999998,225.9,-39.3,231648
0.04999386578333947,0.0022178413011335633,0.987800523684837,0.0534057615,-0.045776367,0.0,134.7,228.29999999999998,-41.1,231933
0.049257759784075573,0.0001232134056185313,0.9894667936205666,0.015258789,-0.0228881835,0.061035156,127.5,228.29999999999998,-42.3,232220
0.05072997178260336,0.0014785608674223755,0.9891097357771959,0.0839233395,-0.0534057615,0.0534057615,134.7,223.5,-39.9,232505
0.04999386578333947,0.0030803351404632825,0.9890502261366342,-0.0381469725,-0.061035156,0.0534057615,125.1,225.9,-42.3,232791
0.0488283646178383,0.0007392804337111878,0.9890502261366342,0.106811523,-0.076293945,0.0686645505,134.7,228.29999999999998,-39.9,233076
0.04827628511839038,0.0022178413011335633,0.987800523684837,-0.0076293945,-0.015258789,0.0381469725,129.9,223.5,-41.1,233363
0.049687154950312847,0.002094627895515032,0.9867888597952869,-0.045776367,-0.0228881835,0.0228881835,127.5,223.5,-40.5,233647
0.050239234449760764,0.0035731887629374074,0.9883361104498929,-0.0076293945,-0.015258789,0.0686645505,132.29999999999998,225.9,-41.1,233934
0.050055207949944794,0.0003080335140463282,0.9890502261366342,0.0228881835,0.091552734,0.091552734,127.5,228.29999999999998,-41.699999999999996,234219
0.05072997178260336,0.0002464268112370626,0.9916091406807903,0.0991821285,0.030517578,0.0381469725,129.9,228.29999999999998,-41.1,234505
0.051159366948840636,0.0012937407589945786,0.9871459176386574,0.061035156,-0.0076293945,0.0686645505,132.29999999999998,225.9,-40.5,234793
0.049257759784075573,0.0004928536224741252,0.9867888597952869,0.091552734,-0.0381469725,0.0228881835,127.5,223.5,-39.9,235080
0.05042326094957674,0.0023410547067520947,0.9882170911687693,0.0839233395,-0.0991821285,0.015258789,132.29999999999998,221.1,-40.5,235365
0.05066862961599804,0.002587481517989157,0.988038562247084,0.030517578,-0.061035156,0.0839233395,127.5,221.1,-40.5,235651
0.04901239111765428,0.0025258748151798915,0.9879195429659605,0.122070312,-0.030517578,0.137329101,129.9,225.9,-39.3,235936
0.05066862961599804,0.003511582060128142,0.9885741490121399,0.061035156,-0.015258789,0.045776367,125.1,225.9,-38.1,236222
0.05030057661636609,0.0009857072449482504,0.9871459176386574,0.0,-0.0228881835,-0.0076293945,134.7,221.1,-41.1,236507
0.050239234449760764,0.0005544603252833908,0.9885741490121399,0.0381469725,-0.0076293945,0.0,129.9,225.9,-40.5,236792
0.05109802478223531,0.0016633809758501725,0.9902999285884313,-0.0381469725,-0.0228881835,0.015258789,129.9,221.1,-39.3,237077
0.05042326094957674,0.0002464268112370626,0.9904784575101166,0.0228881835,-0.061035156,-0.015258789,132.29999999999998,228.29999999999998,-42.3,237363
0.05079131394920869,0.001971414489896501,0.9873244465603428,0.0228881835,-0.061035156,0.0076293945,132.29999999999998,221.1,-40.5,237649
0.05097534044902466,0.003634795465746673,0.9882766008093311,0.0228881835,-0.045776367,0.0076293945,132.29999999999998,223.5,-40.5,237935
0.05091399828241933,0.0027106949236076886,0.9876815044037134,0.015258789,0.0686645505,-0.0381469725,125.1,225.9,-39.3,238222
0.04974849711691817,0.0002464268112370626,0.9889907164960724,0.0534057615,-0.061035156,0.030517578,132.29999999999998,223.5,-41.1,238508
0.05165010428168323,0.0009241005421389847,0.9890502261366342,0.1907348625,-0.0228881835,0.061035156,134.7,230.7,-39.9,238793
0.04980983928352349,0.0013553474618038443,0.9878600333253987,0.076293945,-0.0686645505,0.030517578,132.29999999999998,230.7,-42.3,239079
0.050361918782971415,0.0016017742730409068,0.9881575815282075,0.0381469725,-0.0381469725,-0.0381469725,134.7,225.9,-41.1,239364
0.050239234449760764,0.0017865943814687037,0.9894072839800048,0.1602172845,0.0076293945,-0.0076293945,129.9,223.5,-39.3,239650
0.04993252361673414,0.0032651552488910792,0.9882170911687693,0.0228881835,-0.061035156,0.0534057615,125.1,223.5,-38.699999999999996,239935
0.04962581278370752,0.00043124691966485955,0.9876219947631516,-0.0228881835,-0.015258789,0.015258789,132.29999999999998,228.29999999999998,-40.5,240221
0.04864433811802233,0.0014785608674223755,0.9876815044037134,0.0839233395,-0.0381469725,0.015258789,127.5,225.9,-42.3,240508
0.05042326094957674,0.0034499753573188764,0.9873839562009046,0.076293945,0.030517578,0.015258789,134.7,221.1,-42.3,240795
0.05293828978039505,0.0033883686545096107,0.9891097357771959,0.030517578,0.0381469725,-0.0228881835,129.9,225.9,-41.699999999999996,241080
0.049257759784075573,0.00043124691966485955,0.9915496310402285,0.061035156,-0.0381469725,-0.030517578,132.29999999999998,221.1,-41.1,241366
0.049687154950312847,0.0011705273533760474,0.9855986669840514,0.0076293945,0.0,0.0,134.7,225.9,-41.1,241652
0.05079131394920869,0.0024642681123706258,0.9889312068555106,0.045776367,0.0,0.0686645505,129.9,223.5,-41.1,241937
0.05060728744939271,0.002094627895515032,0.9882170911687693,0.076293945,-0.0686645505,0.061035156,132.29999999999998,225.9,-41.1,242221
0.049257759784075573,0.0027723016264169544,0.9873244465603428,0.030517578,-0.061035156,0.015258789,129.9,221.1,-40.5,242507
0.049441786283891544,0.0022178413011335633,0.9886931682932635,-0.030517578,0.0228881835,-0.045776367,134.7,225.9,-41.699999999999996,242793
0.05128205128205128,0.0019098077870872351,0.9899428707450607,0.061035156,-0.0076293945,0.0076293945,134.7,228.29999999999998,-39.9,243079
0.04999386578333947,0.0034499753573188764,0.988812187574387,0.091552734,0.015258789,-0.0076293945,134.7,228.29999999999998,-40.5,243366
0.04895104895104895,0.0008008871365204534,0.9911330635562962,0.015258789,0.0381469725,0.045776367,139.5,225.9,-40.5,243654
0.051036682615629984,0.0016633809758501725,0.9890502261366342,0.015258789,-0.030517578,0.0534057615,134.7,225.9,-41.699999999999996,243939
0.05195681511470985,0.004620502710694923,0.988038562247084,0.0991821285,-0.1144409175,-0.0228881835,129.9,221.1,-39.3,244226
0.05060728744939271,-0.0001232134056185313,0.9897643418233754,0.030517578,0.0228881835,0.0686645505,129.9,225.9,-40.5,244510
0.05109802478223531,0.00043124691966485955,0.9898238514639371,0.1602172845,0.0839233395,0.076293945,127.5,225.9,-40.5,244796
0.055453318611213345,0.0015401675702316413,0.9891692454177576,0.15258789,0.0228881835,0.106811523,125.1,221.1,-44.699999999999996,245080
0.04477978162188689,-0.0004928536224741252,0.988038562247084,0.0228881835,-0.0381469725,0.3738403305,134.7,228.29999999999998,-39.9,245368
0.05042326094957674,-6.160670280926565e-05,0.9882170911687693,-0.0228881835,-0.0839233395,-0.076293945,137.1,218.7,-39.9,245653
0.05091399828241933,0.0031419418432725482,0.9888716972149488,0.1144409175,-0.076293945,0.0076293945,134.7,225.9,-41.699999999999996,245941
0.055453318611213345,0.0003696402168555939,0.9902999285884313,0.1296997065,0.0,0.045776367,134.7,225.9,-42.9,246226
0.05079131394920869,-0.0024642681123706258,0.9883956200904547,0.0686645505,0.0991821285,0.381469725,129.9,223.5,-41.699999999999996,246512
0.09808612440191387,-0.05094874322326269,0.9817305403475363,0.167846679,0.030517578,1.892089836,129.9,225.9,-39.3,246797
0.1337259231996074,-0.108304583538689,0.985955724827422,0.8926391565,-0.2517700185,12.3367309065,127.5,225.9,-39.9,247083
0.03563979879769354,0.003942828979793002,0.9926208045703404,1.2741088815,0.335693358,22.6364134815,141.9,223.5,-39.3,247368
-0.005336768494663232,0.10873583045835387,0.9901213996667461,1.098632808,0.274658202,18.707275314,132.29999999999998,223.5,-43.5,247654
-0.017359833149306832,0.10091177920157714,0.9947631516305642,0.4043579085,0.061035156,7.4844360045,134.7,225.9,-41.1,247940
0.06281437860385229,-0.017188270083785116,0.9861937633896691,0.0076293945,-0.335693358,-1.7623901295,125.1,223.5,-41.699999999999996,248226
0.062446325604220344,-0.03659438146870379,0.988812187574387,-0.076293945,-0.0534057615,-0.0534057615,137.1,230.7,-39.3,248513
0.03907496012759171,0.03468457368161656,0.990656986431802,0.1602172845,0.061035156,0.4959106425,141.9,225.9,-41.1,248799
0.059379217273954114,-0.009733859043863972,0.9879195429659605,0.015258789,-0.106811523,0.1907348625,132.29999999999998,228.29999999999998,-39.3,249084
0.03343148079990185,0.006715130606209956,0.9900023803856225,-0.015258789,0.122070312,-0.854492184,134.7,225.9,-41.1,249371
0.05698687277634646,-0.005606209955643174,0.9882170911687693,-0.0381469725,0.0,-0.2059936515,139.5,228.29999999999998,-40.5,249655
0.05091399828241933,-0.0003080335140463282,0.9895263032611283,0.0534057615,0.0686645505,-0.4501342755,129.9,221.1,-41.699999999999996,249942
0.04422770212243896,0.006468703794972893,0.9896453225422518,0.091552734,0.1144409175,0.1602172845,125.1,223.5,-42.3,250231
0.0490737332842596,0.0035731887629374074,0.9857771959057368,0.122070312,0.259399413,-0.2517700185,129.9,223.5,-41.1,250518
0.0400564347932769,0.005174963035978314,0.9857771959057368,0.137329101,0.198364257,-0.6942748995,132.29999999999998,223.5,-38.699999999999996,250803
0.0430622009569378,0.006037456875308034,0.9901213996667461,0.1449584955,0.2822875965,-1.7166137625,129.9,225.9,-42.3,251089
0.04839896945160103,0.00991867915229177,0.9907760057129255,0.4043579085,0.4348754865,-2.4948120015,134.7,225.9,-41.699999999999996,251375
0.06189424610477242,-0.01965253819615574,0.9898238514639371,0.228881835,0.1144409175,-1.0147094685,129.9,218.7,-40.5,251660
0.07943810575389523,-0.00622227698373583,0.9898238514639371,-0.045776367,-0.091552734,-0.1602172845,125.1,223.5,-41.1,251946
0.06042203410624463,-0.0037580088713652046,0.9869673887169722,-0.381469725,-0.1144409175,2.3269653225,129.9,223.5,-39.9,252232
0.04183535762483131,0.019714144898965006,0.9857771959057368,-0.4501342755,0.0,2.2201537995,132.29999999999998,218.7,-41.1,252518
0.0425714636240952,0.01965253819615574,0.9887526779338253,-0.0991821285,0.061035156,0.2975463855,127.5,221.1,-41.1,252805
0.026499815973500183,-0.007577624445539674,0.9917876696024756,0.213623046,0.061035156,-0.396728514,134.7,218.7,-40.5,253090
0.06631088210035578,0.02082306554953179,0.9919661985241609,0.30517578,0.167846679,-0.30517578,134.7,223.5,-40.5,253376
0.03686664212980002,0.0001232134056185313,0.989347774339443,0.0686645505,-0.045776367,3.433227525,129.9,223.5,-41.699999999999996,253661
0.04171267329162066,-0.019159684573681616,0.9879790526065223,-0.0991821285,-0.2365112295,3.1967162955,132.29999999999998,225.9,-38.699999999999996,253948
0.040240461293092875,0.0024642681123706258,0.9884551297310165,0.122070312,0.0534057615,-0.701904294,134.7,223.5,-41.699999999999996,254234
0.039320328794013,0.00862493839329719,0.9900023803856225,0.2212524405,0.0228881835,-1.1520385695,137.1,223.5,-39.9,254520
0.02073365231259968,0.02248644652538196,0.990656986431802,0.625610349,0.228881835,-3.2424926625,141.9,225.9,-38.699999999999996,254805
0.045454545454545456,0.0362247412518482,0.9885741490121399,0.9994506795,0.4348754865,-5.630493141,137.1,223.5,-42.9,255092
0.07109557109557109,-0.007516017742730409,0.9882170911687693,1.1825561475,0.1907348625,-6.362915013,139.5,223.5,-40.5,255377
0.0780885780885781,-0.03985953671759487,0.9882170911687693,0.747680661,0.0,-4.455566388,129.9,221.1,-40.5,255663
0.0818917924181082,-0.026860522424839824,0.9910140442751726,-0.015258789,-0.213623046,-1.2283325145,129.9,228.29999999999998,-41.699999999999996,255947
0.0761256287572077,-0.0161409561360276,0.990656986431802,-0.4501342755,-0.320434569,3.3493041855,129.9,230.7,-39.9,256234
0.02042694147957306,0.027291769344504682,0.9899428707450607,-0.4959106425,-0.045776367,6.1721801505,127.5,225.9,-41.1,256519
0.04502515028830818,0.018297190734351897,0.9861937633896691,-0.15258789,-0.091552734,3.2272338735,132.29999999999998,228.29999999999998,-41.1,256804
0.04361428045638572,-0.012382947264662394,0.9884551297310165,-0.076293945,-0.183105468,2.334594717,141.9,225.9,-40.5,257090
0.04214206845785793,0.006345490389354362,0.9879790526065223,-0.0228881835,-0.0991821285,0.9994506795,125.1,221.1,-39.3,257376
0.04901239111765428,0.0011705273533760474,0.9885146393715782,0.122070312,0.1296997065,0.0228881835,132.29999999999998,230.7,-40.5,257661
0.055146607778186724,-0.004558896007885658,0.9897643418233754,0.122070312,0.1754760735,0.3890991195,137.1,223.5,-41.699999999999996,257947
0.053674395779658934,0.004497289305076392,0.9890502261366342,0.0,0.1449584955,0.8163452115000001,139.5,223.5,-41.1,258232
0.05312231628021102,0.00905618531296205,0.9891692454177576,-0.076293945,0.137329101,1.3504028265,134.7,223.5,-41.1,258518
0.0455772297877561,0.0054829965500246425,0.9899428707450607,-0.015258789,0.1449584955,1.541137689,139.5,221.1,-40.5,258803
0.044534412955465584,0.0065303104977821585,0.9907760057129255,-0.0534057615,0.122070312,1.0452270465,137.1,230.7,-41.699999999999996,259089
0.04980983928352349,-0.0034499753573188764,0.9866103308736015,0.015258789,0.0381469725,0.366210936,127.5,228.29999999999998,-41.1,259375
0.04999386578333947,0.0008008871365204534,0.9897048321828136,0.122070312,0.244140624,0.503540037,129.9,223.5,-41.699999999999996,259661
0.044534412955465584,0.009549038935436176,0.987800523684837,0.0228881835,0.3128051745,0.793457028,132.29999999999998,221.1,-41.1,259946
0.046251993620414676,0.007269590931493346,0.9896453225422518,0.015258789,0.0381469725,-0.1296997065,129.9,225.9,-41.1,260232
0.050239234449760764,-0.0016017742730409068,0.9888716972149488,0.061035156,-0.061035156,-1.2588500925,129.9,228.29999999999998,-40.5,260517
0.04784688995215311,-0.0016633809758501725,0.9904189478695549,-0.0381469725,-0.2822875965,-1.3046264595000001,134.7,223.5,-40.5,260804
0.05312231628021102,-0.0024026614095613605,0.9894072839800048,-0.0991821285,-0.2670288075,-1.0604858355,137.1,225.9,-39.9,261089
0.052815605447184395,0.0008624938393297191,0.9891097357771959,0.030517578,-0.122070312,-0.2059936515,132.29999999999998,225.9,-41.1,261379
0.036989326463010674,0.010596352883193692,0.9902999285884313,-0.0381469725,-0.106811523,-0.396728514,132.29999999999998,221.1,-40.5,261665
0.034658324132008346,0.018790044356826022,0.9899428707450607,0.0534057615,-0.030517578,-1.1062622025,134.7,225.9,-41.699999999999996,261951
0.052140841614525826,0.01244455396747166,0.9871459176386574,0.320434569,-0.0381469725,-2.243041983,134.7,218.7,-41.1,262236
0.0455772297877561,0.013491867915229177,0.985182099500119,0.2975463855,-0.1754760735,-2.838134754,134.7,223.5,-41.1,262522
0.046620046620046623,0.007454411039921144,0.9882766008093311,0.564575193,-0.167846679,-2.8305053595,129.9,228.29999999999998,-39.9,262807
0.07042080726291253,-0.00850172498767866,0.987502975482028,0.686645505,0.030517578,-2.1743774325,134.7,221.1,-41.1,263093
0.07391731075941602,-0.01570970921636274,0.9895263032611283,0.3128051745,-0.045776367,0.2365112295,132.29999999999998,221.1,-40.5,263379
0.059195190774138144,0.0024642681123706258,0.9891692454177576,-0.045776367,-0.259399413,3.143310534,137.1,228.29999999999998,-41.1,263665
0.04392099128941234,-0.0008008871365204534,0.9866103308736015,-0.1754760735,-0.198364257,5.8746337650000005,129.9,221.1,-40.5,263951
0.025702367807630966,-0.0009241005421389847,0.9907164960723637,-0.1907348625,-0.076293945,3.4561157085,134.7,230.7,-41.1,264237
0.056741504109925164,-0.007577624445539674,0.9877410140442752,-0.030517578,-0.0381469725,1.281738276,132.29999999999998,218.7,-41.1,264522
0.05876579560790087,-0.01724987678659438,0.9891097357771959,-0.0534057615,0.0534057615,1.464843744,139.5,223.5,-38.699999999999996,264809
0.04158998895841001,-0.003326761951700345,0.9856581766246132,-0.2822875965,0.15258789,1.449584955,134.7,221.1,-39.9,265094
0.049380444117286225,0.0059758501724987674,0.9907760057129255,-0.198364257,0.198364257,0.30517578,137.1,223.5,-38.699999999999996,265380
0.05391976444608024,-0.004497289305076392,0.9909545346346108,-0.122070312,0.0839233395,-0.656127927,132.29999999999998,223.5,-39.3,265666
0.04410501778922832,0.004990142927550518,0.9869673887169722,-0.2517700185,0.015258789,-1.1215209915,137.1,228.29999999999998,-41.699999999999996,265953
0.03925898662740768,0.01583292262198127,0.9883956200904547,-0.274658202,-0.061035156,-1.174926753,139.5,230.7,-40.5,266239
0.04527051895472948,0.004990142927550518,0.9894072839800048,0.0228881835,0.0228881835,0.091552734,139.5,228.29999999999998,-39.9,266525
0.0425714636240952,0.008316904879250863,0.9877410140442752,0.0686645505,0.1449584955,0.488281248,132.29999999999998,228.29999999999998,-39.9,266811
0.049380444117286225,-0.005914243469689502,0.9887526779338253,0.122070312,0.091552734,0.411987303,134.7,223.5,-40.5,267097
0.05128205128205128,0.006715130606209956,0.9880980718876458,0.076293945,0.045776367,0.411987303,139.5,221.1,-40.5,267382
0.056066740277266595,0.0080704780680138,0.9879790526065223,0.0839233395,0.0381469725,-0.1602172845,137.1,221.1,-38.699999999999996,267668
0.05404244877929088,-0.004620502710694923,0.9886336586527017,0.1144409175,0.0228881835,-0.320434569,139.5,223.5,-41.699999999999996,267953
0.04864433811802233,0.0006160670280926564,0.9895858129016901,0.1296997065,-0.0534057615,-0.3890991195,139.5,221.1,-41.699999999999996,268239
0.05017789228315544,0.0012321340561853129,0.9918471792430373,0.1449584955,0.0,-0.1754760735,125.1,223.5,-40.5,268524
0.04674273095325727,0.0032035485460818135,0.9905379671506784,-0.1296997065,0.0076293945,-0.0534057615,132.29999999999998,223.5,-41.699999999999996,268810
0.047908232118758436,0.005421389847215377,0.9904189478695549,-0.045776367,-0.0534057615,-0.0839233395,137.1,221.1,-40.5,269096
0.04428904428904429,0.0041276490882207984,0.9892287550583194,0.045776367,-0.1449584955,-0.2059936515,132.29999999999998,225.9,-39.9,269382
0.04741749478591584,0.0041276490882207984,0.990895024994049,0.045776367,-0.1907348625,-0.5722045875,134.7,218.7,-38.699999999999996,269667
0.04839896945160103,0.0032035485460818135,0.987502975482028,-0.015258789,-0.1602172845,-0.1754760735,132.29999999999998,221.1,-39.9,269956
0.051220709115445955,-0.0019098077870872351,0.9891692454177576,-0.0534057615,-0.259399413,-0.122070312,144.29999999999998,213.9,-40.5,270242
0.05030057661636609,-0.002279448003942829,0.9895858129016901,0.1754760735,-0.259399413,0.1754760735,132.29999999999998,228.29999999999998,-40.5,270528
0.04950312845049687,-0.0006776737309019222,0.9864913115924779,0.1296997065,-0.0686645505,0.3433227525,125.1,218.7,-39.9,270814
0.04336891178996442,0.005113356333169049,0.987264936919781,0.0534057615,-0.228881835,0.0534057615,137.1,223.5,-41.1,271100
0.013556618819776715,-0.006099063578117299,0.9892287550583194,0.244140624,-0.4196166975,-0.2517700185,132.29999999999998,225.9,-41.1,271385
0.02643847380689486,-0.0041276490882207984,0.988038562247084,0.15258789,0.106811523,-0.3280639635,129.9,225.9,-41.1,271672
0.030303030303030304,-0.030495317890586494,0.9894667936205666,0.3280639635,0.1296997065,2.090454093,137.1,228.29999999999998,-41.1,271957
