ax,ay,az,gx,gy,gz,mx,my,mz,t_stamp
0.009108813392417528,0.04716631682923818,1.0075530511929025,0.4501342755,-0.122070312,0.198364257,-124.5,-232.5,-69.3,11217
-0.01760216642048252,0.05445116681071737,1.005035367461935,-0.030517578,-0.228881835,0.5416870095,-129.29999999999998,-230.1,-69.3,11445
-0.012678483505662235,0.0593900481540931,1.0039563601486632,0.3280639635,-0.0076293945,0.4501342755,-126.89999999999999,-230.1,-68.1,11669
-0.03360413589364845,0.06185948882578096,1.008751948207649,0.1907348625,0.1907348625,-0.76293945,-131.7,-230.1,-68.1,11893
-0.023387493845396356,0.03580688973947401,1.003716580745714,-0.0228881835,0.1602172845,-2.0828246985,-129.29999999999998,-234.89999999999998,-68.1,12117
-0.021541112752338748,0.06593406593406594,1.0071933820884786,-0.045776367,0.0839233395,-0.885009762,-131.7,-232.5,-67.5,12341
-0.014155588380108322,0.020249413507840475,1.0064740438796307,-0.350952147,-0.0839233395,1.3809204045,-124.5,-225.29999999999998,-67.5,12565
-0.014155588380108322,0.020249413507840475,1.0064740438796307,-0.350952147,-0.0839233395,1.3809204045,-124.5,-225.29999999999998,-67.5,12789
-0.004431314623338257,-0.006790961847141622,1.0052751468648844,0.0228881835,-0.0228881835,0.885009762,-131.7,-230.1,-67.5,13014
-0.03975873953717381,0.075688356587233,1.005035367461935,0.213623046,0.183105468,-0.411987303,-122.1,-227.7,-67.5,13292
-0.008739537173806006,0.06753920237066305,1.0079127202973264,0.15258789,0.2212524405,-1.1062622025,-126.89999999999999,-227.7,-70.5,13577
-0.019079271294928608,0.07420669218422027,1.006354154178156,0.045776367,0.1907348625,-0.106811523,-126.89999999999999,-225.29999999999998,-68.7,13862
-0.004431314623338257,0.03765897024323991,1.0051552571634097,-0.1296997065,-0.015258789,0.2517700185,-122.1,-234.89999999999998,-68.7,14148
-0.0103397341211226,0.04259785158661563,1.005754705670783,-0.106811523,0.030517578,0.045776367,-129.29999999999998,-225.29999999999998,-69.89999999999999,14433
-0.022033481043820777,0.034819113470798864,1.0062342644766815,-0.0839233395,0.061035156,0.2212524405,-124.5,-227.7,-68.7,14718
-0.028557360905957656,0.031608840597604645,1.0065939335811054,0.030517578,0.122070312,0.061035156,-126.89999999999999,-230.1,-67.5,15003
-0.02708025603151157,0.041980491418693665,1.0068337129840548,0.061035156,0.0534057615,-0.1296997065,-122.1,-227.7,-70.5,15288
-0.018586903003446578,0.04062229904926534,1.0065939335811054,0.0686645505,-0.0076293945,-0.137329101,-129.29999999999998,-227.7,-68.7,15574
-0.013417035942885278,0.05235214223978269,1.0069536026855292,0.0381469725,0.015258789,-0.1754760735,-126.89999999999999,-230.1,-67.5,15859
-0.010585918266863614,0.05543894307939252,1.0055149262678336,0.0228881835,0.076293945,0.0076293945,-124.5,-230.1,-68.1,16145
-0.016986706056129987,0.05371033460921101,1.005754705670783,0.0534057615,0.0686645505,-0.183105468,-124.5,-230.1,-66.89999999999999,16429
-0.023879862136878385,0.04099271515001852,1.0059944850737321,-0.0076293945,0.0,0.0228881835,-126.89999999999999,-232.5,-68.7,16715
-0.024618414574101428,0.03741202617607112,1.0074331614914278,-0.0839233395,0.0076293945,-0.061035156,-131.7,-227.7,-68.7,17000
-0.021294928606597735,0.034819113470798864,1.0062342644766815,0.0,0.045776367,-0.061035156,-126.89999999999999,-237.29999999999998,-68.1,17285
-0.016863613983259477,0.03531300160513644,1.0061143747752068,-0.030517578,0.0991821285,-0.0534057615,-124.5,-230.1,-69.3,17570
-0.012801575578532743,0.04728978886282257,1.0055149262678336,-0.0686645505,0.0991821285,-0.1449584955,-131.7,-227.7,-69.3,17855
-0.011816838995568686,0.052599086306951474,1.005754705670783,0.106811523,0.1296997065,-0.0228881835,-126.89999999999999,-227.7,-68.7,18141
-0.0155096011816839,0.05803185578466477,1.002997242536866,0.076293945,0.167846679,-0.0228881835,-129.29999999999998,-227.7,-69.89999999999999,18427
-0.01772525849335303,0.04975922953451043,1.0040762498501379,0.0076293945,0.0228881835,0.030517578,-131.7,-230.1,-67.5,18712
-0.021048744460856722,0.044573404123965925,1.0032370219398155,-0.045776367,0.0686645505,-0.1907348625,-129.29999999999998,-230.1,-68.7,18997
-0.01637124569177745,0.037165082108902334,1.0081524997002758,-0.0839233395,0.030517578,-0.0839233395,-126.89999999999999,-237.29999999999998,-68.1,19285
-0.016617429837518464,0.03741202617607112,1.0082723894017505,-0.122070312,0.0381469725,-0.091552734,-126.89999999999999,-222.9,-68.1,19571
-0.016986706056129987,0.04123965921718731,1.0068337129840548,-0.015258789,0.1296997065,-0.0991821285,-124.5,-230.1,-68.7,19855
-0.018709995076317085,0.04741326089640696,1.005754705670783,0.015258789,0.091552734,0.030517578,-119.69999999999999,-232.5,-68.1,20140
-0.01932545544066962,0.05235214223978269,1.0079127202973264,-0.0381469725,-0.0076293945,0.0076293945,-126.89999999999999,-237.29999999999998,-68.7,20425
-0.017971442639094042,0.054945054945054944,1.0058745953722574,0.061035156,0.0076293945,-0.0686645505,-124.5,-225.29999999999998,-68.7,20712
-0.016125061546036434,0.046919372762069395,1.00671382328258,-0.106811523,0.045776367,-0.091552734,-129.29999999999998,-227.7,-68.1,20998
-0.016001969473165928,0.043091739720953204,1.0074331614914278,-0.061035156,0.0839233395,-0.0534057615,-126.89999999999999,-230.1,-66.89999999999999,21284
-0.01772525849335303,0.04049882701568095,1.0065939335811054,-0.045776367,0.0381469725,0.0,-131.7,-230.1,-68.7,21570
-0.02018709995076317,0.03889369057908384,1.008032609998801,0.0228881835,0.076293945,-0.091552734,-126.89999999999999,-227.7,-68.1,21857
-0.020064007877892663,0.04123965921718731,1.0055149262678336,0.076293945,0.0228881835,-0.0839233395,-126.89999999999999,-227.7,-68.1,22141
-0.02018709995076317,0.044573404123965925,1.0039563601486632,-0.015258789,-0.0228881835,-0.076293945,-122.1,-234.89999999999998,-68.1,22427
-0.02031019202363368,0.04716631682923818,1.0062342644766815,0.0839233395,0.045776367,0.015258789,-126.89999999999999,-230.1,-67.5,22711
-0.01674052191038897,0.05111742190393876,1.004316029253087,0.030517578,0.076293945,-0.0534057615,-124.5,-230.1,-69.3,22997
-0.01501723289020187,0.05062353376960119,1.006354154178156,-0.076293945,0.167846679,-0.0991821285,-126.89999999999999,-230.1,-69.3,23283
-0.015140324963072379,0.04654895666131621,1.006354154178156,-0.0686645505,0.0839233395,-0.0686645505,-124.5,-225.29999999999998,-66.89999999999999,23568
-0.017848350566223536,0.040869243116434126,1.006354154178156,-0.1449584955,0.0991821285,-0.045776367,-129.29999999999998,-227.7,-67.5,23854
-0.017848350566223536,0.039881466847758985,1.005035367461935,-0.0381469725,0.0686645505,0.0,-126.89999999999999,-227.7,-66.89999999999999,24139
-0.020802560315115706,0.04161007531794049,1.007073492387004,-0.0076293945,0.045776367,-0.076293945,-129.29999999999998,-232.5,-69.3,24426
-0.022648941408173313,0.04370909988887517,1.005035367461935,0.030517578,0.1907348625,-0.0228881835,-131.7,-232.5,-65.7,24711
-0.02018709995076317,0.04630201259414742,1.0045558086560364,-0.015258789,0.1144409175,-0.0991821285,-119.69999999999999,-232.5,-68.7,24995
-0.016494337764647957,0.04778367699716014,1.0069536026855292,0.061035156,0.0534057615,-0.0686645505,-126.89999999999999,-234.89999999999998,-68.1,25280
-0.01292466765140325,0.05062353376960119,1.007073492387004,0.061035156,0.1144409175,0.0076293945,-124.5,-230.1,-66.3,25565
-0.015140324963072379,0.04827756513149772,1.0076729408943772,-0.0076293945,0.15258789,-0.0228881835,-126.89999999999999,-227.7,-69.3,25852
-0.020064007877892663,0.04148660328435609,1.0045558086560364,0.106811523,0.0228881835,-0.030517578,-122.1,-230.1,-68.1,26138
-0.019571639586410634,0.04099271515001852,1.0062342644766815,0.0991821285,0.0839233395,-0.015258789,-119.69999999999999,-230.1,-68.7,26424
-0.016001969473165928,0.042103963452278056,1.00671382328258,-0.045776367,0.137329101,-0.045776367,-129.29999999999998,-230.1,-68.1,26709
-0.019202363367799114,0.04654895666131621,1.0052751468648844,-0.015258789,0.0534057615,-0.0534057615,-126.89999999999999,-227.7,-66.3,26995
-0.017848350566223536,0.04654895666131621,1.0061143747752068,0.0839233395,0.061035156,-0.0381469725,-126.89999999999999,-232.5,-66.89999999999999,27280
-0.01760216642048252,0.049265341400172864,1.0039563601486632,0.0,0.0228881835,-0.0839233395,-124.5,-232.5,-68.1,27566
-0.016986706056129987,0.05087047783676997,1.0053950365663589,0.030517578,-0.0076293945,0.0381469725,-126.89999999999999,-227.7,-67.5,27853
-0.01674052191038897,0.04617854056056303,1.0034768013427646,-0.030517578,0.0,0.0381469725,-124.5,-227.7,-69.3,28138
-0.015263417035942885,0.04037535498209655,1.00671382328258,-0.1602172845,0.061035156,-0.091552734,-129.29999999999998,-230.1,-68.7,28425
-0.01760216642048252,0.04123965921718731,1.0045558086560364,-0.1296997065,0.045776367,-0.045776367,-134.1,-230.1,-67.5,28712
-0.018709995076317085,0.043091739720953204,1.0040762498501379,-0.045776367,0.0991821285,0.0,-131.7,-227.7,-68.7,28997
-0.020064007877892663,0.044573404123965925,1.0056348159693083,-0.0534057615,0.091552734,-0.0534057615,-126.89999999999999,-230.1,-69.3,29282
-0.01932545544066962,0.046795900728484996,1.0056348159693083,-0.0076293945,0.0381469725,-0.045776367,-126.89999999999999,-237.29999999999998,-67.5,29567
-0.018586903003446578,0.04568465242622546,1.0051552571634097,0.045776367,0.0381469725,-0.0381469725,-122.1,-232.5,-66.89999999999999,29854
-0.01624815361890694,0.049018397333004074,1.0075530511929025,-0.0228881835,-0.030517578,-0.045776367,-124.5,-237.29999999999998,-68.7,30138
-0.01624815361890694,0.048154093097913325,1.0093513967150223,0.061035156,-0.030517578,-0.0534057615,-124.5,-230.1,-69.3,30424
-0.01772525849335303,0.045437708359056674,1.007792830595852,0.030517578,0.0534057615,-0.106811523,-126.89999999999999,-222.9,-68.1,30708
-0.021294928606597735,0.04370909988887517,1.0052751468648844,-0.0686645505,0.015258789,0.0381469725,-122.1,-227.7,-68.7,30995
-0.01932545544066962,0.04296826768736881,1.0056348159693083,0.0228881835,-0.015258789,-0.1144409175,-129.29999999999998,-225.29999999999998,-67.5,31280
-0.016617429837518464,0.04519076429188789,1.0061143747752068,0.091552734,-0.0381469725,-0.137329101,-131.7,-237.29999999999998,-69.3,31567
-0.01624815361890694,0.04766020496357575,1.0041961395516126,-0.0534057615,0.106811523,-0.0381469725,-126.89999999999999,-232.5,-68.7,31852
-0.016863613983259477,0.04716631682923818,1.0046756983575111,-0.0686645505,0.1296997065,-0.015258789,-131.7,-232.5,-67.5,32137
-0.016863613983259477,0.04741326089640696,1.008392279103225,-0.0076293945,0.045776367,-0.0534057615,-126.89999999999999,-232.5,-66.89999999999999,32423
-0.01624815361890694,0.048154093097913325,1.006354154178156,-0.030517578,0.0686645505,0.0228881835,-126.89999999999999,-237.29999999999998,-66.89999999999999,32708
-0.017109798129000493,0.04370909988887517,1.0039563601486632,-0.030517578,0.1602172845,-0.0381469725,-129.29999999999998,-227.7,-69.3,32993
-0.02018709995076317,0.0449438202247191,1.008392279103225,0.0228881835,0.061035156,-0.1602172845,-129.29999999999998,-222.9,-66.3,33279
-0.018586903003446578,0.04173354735152488,1.0059944850737321,-0.030517578,0.0991821285,-0.015258789,-126.89999999999999,-232.5,-68.7,33563
-0.018340718857705565,0.04482034819113471,1.006354154178156,-0.0839233395,0.0839233395,0.015258789,-129.29999999999998,-232.5,-68.1,33849
-0.015386509108813392,0.04654895666131621,1.008392279103225,0.0381469725,0.1144409175,0.0381469725,-131.7,-237.29999999999998,-65.7,34134
-0.01587887740029542,0.049141869366588466,1.0075530511929025,0.015258789,0.1754760735,-0.0076293945,-124.5,-230.1,-69.89999999999999,34420
-0.016863613983259477,0.04766020496357575,1.0076729408943772,0.0381469725,0.106811523,-0.0686645505,-124.5,-230.1,-68.1,34704
-0.017355982274741506,0.044449932090381526,1.006354154178156,0.0,0.091552734,-0.015258789,-124.5,-225.29999999999998,-69.3,34991
-0.018340718857705565,0.044326460056797135,1.0061143747752068,0.0228881835,0.0381469725,-0.0228881835,-124.5,-227.7,-69.3,35275
-0.01932545544066962,0.04296826768736881,1.0062342644766815,-0.0228881835,0.0381469725,-0.137329101,-119.69999999999999,-227.7,-67.5,35561
-0.017479074347612013,0.04593159649339425,1.007792830595852,-0.0534057615,0.0228881835,0.0228881835,-124.5,-230.1,-68.7,35845
-0.01501723289020187,0.047042844795653786,1.0055149262678336,-0.091552734,0.0534057615,-0.0381469725,-124.5,-222.9,-66.3,36131
-0.017232890201871,0.04593159649339425,1.00671382328258,-0.122070312,0.0839233395,-0.061035156,-126.89999999999999,-225.29999999999998,-68.7,36417
-0.01846381093057607,0.046919372762069395,1.00671382328258,-0.0228881835,0.0,0.0381469725,-126.89999999999999,-230.1,-67.5,36704
-0.019448547513540127,0.04864798123225089,1.0062342644766815,-0.0381469725,0.0991821285,-0.0228881835,-119.69999999999999,-230.1,-68.1,36988
-0.0189561792220581,0.044696876157550317,1.0052751468648844,0.030517578,0.0534057615,-0.076293945,-134.1,-230.1,-68.7,37274
-0.018340718857705565,0.04519076429188789,1.0068337129840548,-0.015258789,0.061035156,-0.137329101,-126.89999999999999,-232.5,-67.5,37559
-0.01587887740029542,0.046919372762069395,1.008032609998801,-0.0228881835,0.1602172845,-0.0228881835,-122.1,-230.1,-69.3,37844
-0.016617429837518464,0.04383257192245956,1.0068337129840548,0.091552734,0.15258789,0.0,-124.5,-232.5,-67.5,38129
-0.01809453471196455,0.04593159649339425,1.0064740438796307,-0.0076293945,0.045776367,-0.015258789,-131.7,-225.29999999999998,-67.5,38413
-0.018709995076317085,0.04716631682923818,1.0064740438796307,-0.030517578,0.1754760735,-0.015258789,-129.29999999999998,-234.89999999999998,-68.7,38698
-0.01772525849335303,0.04827756513149772,1.0074331614914278,-0.061035156,0.0228881835,0.0228881835,-124.5,-234.89999999999998,-68.1,38986
-0.017848350566223536,0.04654895666131621,1.0075530511929025,-0.061035156,0.0991821285,-0.030517578,-129.29999999999998,-232.5,-67.5,39270
-0.018340718857705565,0.04506729225830349,1.006354154178156,-0.0076293945,0.1296997065,-0.0228881835,-129.29999999999998,-230.1,-68.7,39555
-0.017479074347612013,0.046795900728484996,1.0075530511929025,0.0381469725,0.106811523,-0.0076293945,-126.89999999999999,-227.7,-68.1,39840
-0.016125061546036434,0.04605506852697864,1.0069536026855292,0.091552734,0.106811523,0.0381469725,-129.29999999999998,-230.1,-66.89999999999999,40126
-0.01587887740029542,0.045808124459809856,1.007792830595852,-0.0076293945,0.030517578,0.030517578,-126.89999999999999,-227.7,-70.5,40411
-0.017479074347612013,0.047907149030744535,1.0073132717899533,-0.061035156,0.0076293945,-0.0228881835,-126.89999999999999,-230.1,-68.1,40697
-0.018340718857705565,0.046672428694900604,1.0059944850737321,-0.061035156,0.122070312,-0.061035156,-126.89999999999999,-230.1,-68.7,40981
-0.01809453471196455,0.04766020496357575,1.0076729408943772,-0.0076293945,0.030517578,-0.061035156,-122.1,-227.7,-68.1,41266
-0.016125061546036434,0.044696876157550317,1.0069536026855292,0.0381469725,0.1296997065,-0.015258789,-129.29999999999998,-227.7,-69.3,41553
-0.01809453471196455,0.045808124459809856,1.0061143747752068,0.045776367,0.0534057615,0.0228881835,-124.5,-227.7,-68.1,41839
-0.017479074347612013,0.045561180392641065,1.0059944850737321,-0.0686645505,0.0839233395,0.0534057615,-126.89999999999999,-232.5,-68.1,42124
-0.01772525849335303,0.04420298802321274,1.008032609998801,-0.1602172845,0.106811523,-0.0076293945,-131.7,-227.7,-69.3,42410
-0.0189561792220581,0.044326460056797135,1.0062342644766815,-0.122070312,0.0686645505,0.0,-129.29999999999998,-230.1,-67.5,42696
-0.017971442639094042,0.0449438202247191,1.0086320585061743,0.015258789,-0.015258789,0.0076293945,-129.29999999999998,-230.1,-69.89999999999999,42981
-0.01846381093057607,0.04642548462773182,1.007073492387004,-0.015258789,0.0686645505,0.015258789,-126.89999999999999,-232.5,-67.5,43266
-0.01846381093057607,0.04617854056056303,1.0064740438796307,0.0228881835,0.061035156,0.030517578,-129.29999999999998,-232.5,-69.89999999999999,43551
-0.015755785327424915,0.04803062106432893,1.0041961395516126,0.0381469725,0.061035156,-0.045776367,-126.89999999999999,-230.1,-69.89999999999999,43836
-0.015140324963072379,0.046672428694900604,1.0062342644766815,0.1296997065,0.091552734,-0.076293945,-122.1,-234.89999999999998,-68.1,44124
-0.017355982274741506,0.04617854056056303,1.0062342644766815,0.0076293945,0.183105468,-0.0228881835,-126.89999999999999,-230.1,-68.1,44410
-0.017232890201871,0.04741326089640696,1.007792830595852,-0.061035156,0.0839233395,-0.015258789,-134.1,-237.29999999999998,-68.1,44698
-0.01772525849335303,0.04605506852697864,1.0071933820884786,-0.030517578,-0.0228881835,-0.045776367,-124.5,-232.5,-67.5,44983
-0.01883308714918759,0.04296826768736881,1.0082723894017505,-0.0228881835,0.061035156,-0.015258789,-124.5,-232.5,-68.1,45270
-0.017848350566223536,0.04333868378812199,1.0046756983575111,-0.0228881835,0.0076293945,-0.015258789,-126.89999999999999,-227.7,-69.3,45554
-0.017109798129000493,0.04370909988887517,1.0075530511929025,-0.045776367,0.076293945,-0.0076293945,-124.5,-230.1,-68.1,45839
-0.01624815361890694,0.04716631682923818,1.0065939335811054,0.061035156,0.167846679,-0.167846679,-126.89999999999999,-237.29999999999998,-68.1,46123
-0.01637124569177745,0.04630201259414742,1.0045558086560364,0.091552734,0.1296997065,-0.0228881835,-124.5,-230.1,-69.3,46409
-0.016617429837518464,0.04568465242622546,1.0065939335811054,-0.0534057615,0.1907348625,-0.0076293945,-124.5,-230.1,-68.7,46695
-0.017355982274741506,0.044326460056797135,1.0055149262678336,-0.015258789,0.091552734,-0.0381469725,-129.29999999999998,-232.5,-68.1,46980
-0.016863613983259477,0.04519076429188789,1.003716580745714,-0.0076293945,0.030517578,-0.0076293945,-131.7,-237.29999999999998,-69.3,47265
-0.018586903003446578,0.04482034819113471,1.0041961395516126,-0.030517578,0.076293945,-0.076293945,-134.1,-234.89999999999998,-66.89999999999999,47551
-0.01674052191038897,0.04630201259414742,1.0045558086560364,0.061035156,0.091552734,-0.0534057615,-129.29999999999998,-225.29999999999998,-68.1,47836
-0.016494337764647957,0.04568465242622546,1.00671382328258,-0.0228881835,0.0381469725,-0.0839233395,-124.5,-227.7,-67.5,48122
-0.017355982274741506,0.04716631682923818,1.0049154777604603,0.122070312,0.0228881835,-0.0686645505,-129.29999999999998,-230.1,-69.89999999999999,48407
-0.019571639586410634,0.04531423632547228,1.0041961395516126,0.045776367,0.1449584955,-0.106811523,-122.1,-230.1,-68.7,48693
-0.01932545544066962,0.04531423632547228,1.0062342644766815,-0.0076293945,0.167846679,-0.0076293945,-129.29999999999998,-232.5,-67.5,48978
-0.01624815361890694,0.04568465242622546,1.0049154777604603,0.0076293945,0.1296997065,-0.045776367,-131.7,-234.89999999999998,-68.1,49265
-0.01772525849335303,0.047042844795653786,1.007792830595852,0.030517578,0.061035156,-0.1144409175,-126.89999999999999,-227.7,-66.89999999999999,49551
-0.01760216642048252,0.04568465242622546,1.0068337129840548,-0.0534057615,0.122070312,-0.0076293945,-126.89999999999999,-227.7,-68.1,49837
-0.017355982274741506,0.047042844795653786,1.0071933820884786,0.0,0.137329101,-0.0839233395,-126.89999999999999,-232.5,-67.5,50122
-0.01809453471196455,0.046672428694900604,1.0038364704471885,0.061035156,0.0534057615,-0.122070312,-129.29999999999998,-230.1,-66.89999999999999,50409
-0.014401772525849335,0.045561180392641065,1.0065939335811054,0.0381469725,0.045776367,-0.0076293945,-126.89999999999999,-227.7,-69.89999999999999,50694
-0.018586903003446578,0.04605506852697864,1.0085121688046996,0.0381469725,0.15258789,-0.1144409175,-131.7,-232.5,-67.5,50980
-0.017848350566223536,0.04654895666131621,1.0055149262678336,0.0076293945,0.0381469725,-0.15258789,-129.29999999999998,-227.7,-66.3,51264
-0.018217626784835055,0.04506729225830349,1.0068337129840548,-0.076293945,0.0991821285,-0.045776367,-126.89999999999999,-225.29999999999998,-69.3,51549
-0.01772525849335303,0.047042844795653786,1.0059944850737321,-0.0076293945,0.045776367,0.0228881835,-129.29999999999998,-230.1,-68.7,51836
-0.01772525849335303,0.04716631682923818,1.006354154178156,0.0381469725,0.0839233395,0.0076293945,-124.5,-232.5,-69.89999999999999,52122
-0.0189561792220581,0.047042844795653786,1.0065939335811054,-0.0228881835,0.0076293945,-0.0076293945,-129.29999999999998,-234.89999999999998,-68.1,52407
-0.016617429837518464,0.045808124459809856,1.007792830595852,-0.0991821285,0.106811523,-0.0381469725,-126.89999999999999,-230.1,-68.7,52693
-0.01772525849335303,0.046672428694900604,1.00335691164129,-0.0534057615,0.15258789,0.0,-126.89999999999999,-230.1,-69.3,52978
-0.018586903003446578,0.044696876157550317,1.008751948207649,0.061035156,0.0,0.0076293945,-124.5,-230.1,-71.1,53266
-0.017971442639094042,0.044326460056797135,1.0075530511929025,0.061035156,0.061035156,-0.045776367,-126.89999999999999,-227.7,-68.1,53551
-0.01772525849335303,0.04531423632547228,1.0061143747752068,-0.091552734,0.0839233395,-0.0534057615,-124.5,-230.1,-69.89999999999999,53836
-0.01637124569177745,0.04568465242622546,1.00671382328258,-0.0991821285,0.0839233395,-0.045776367,-129.29999999999998,-234.89999999999998,-69.3,54121
-0.01760216642048252,0.044696876157550317,1.0061143747752068,0.045776367,0.137329101,-0.0686645505,-126.89999999999999,-227.7,-66.89999999999999,54409
-0.017479074347612013,0.04519076429188789,1.00671382328258,0.015258789,0.015258789,0.0228881835,-122.1,-232.5,-69.3,54696
-0.017479074347612013,0.0449438202247191,1.0055149262678336,0.045776367,0.030517578,0.0,-134.1,-234.89999999999998,-69.89999999999999,54983
-0.01760216642048252,0.044326460056797135,1.0092315070135476,-0.015258789,0.0839233395,0.015258789,-126.89999999999999,-227.7,-66.89999999999999,55268
-0.016986706056129987,0.046919372762069395,1.006354154178156,-0.076293945,0.061035156,-0.0686645505,-124.5,-227.7,-69.89999999999999,55555
-0.015386509108813392,0.04593159649339425,1.0062342644766815,0.0534057615,0.076293945,-0.106811523,-124.5,-227.7,-68.7,55840
-0.01760216642048252,0.045808124459809856,1.0064740438796307,-0.061035156,0.0686645505,-0.030517578,-126.89999999999999,-232.5,-67.5,56126
-0.01809453471196455,0.04358562785529078,1.0069536026855292,-0.076293945,0.0228881835,-0.015258789,-136.5,-227.7,-69.3,56411
-0.018217626784835055,0.04407951598962835,1.0076729408943772,-0.0228881835,0.0991821285,-0.0076293945,-119.69999999999999,-227.7,-68.7,56695
-0.01809453471196455,0.04407951598962835,1.0064740438796307,-0.0228881835,0.0839233395,-0.0076293945,-124.5,-234.89999999999998,-68.1,56982
-0.016617429837518464,0.04605506852697864,1.0046756983575111,-0.030517578,0.1296997065,0.0,-122.1,-232.5,-67.5,57268
-0.01883308714918759,0.049388813433757256,1.0071933820884786,-0.0534057615,0.091552734,-0.030517578,-124.5,-230.1,-68.1,57553
-0.017848350566223536,0.044449932090381526,1.0073132717899533,0.030517578,0.0076293945,-0.045776367,-124.5,-222.9,-68.1,57839
-0.019940915805022157,0.04506729225830349,1.0062342644766815,0.061035156,0.0839233395,-0.030517578,-124.5,-232.5,-69.89999999999999,58123
-0.020064007877892663,0.045437708359056674,1.005754705670783,-0.0381469725,0.076293945,-0.0991821285,-122.1,-232.5,-68.1,58409
-0.018709995076317085,0.04506729225830349,1.0079127202973264,-0.0839233395,0.122070312,-0.0381469725,-124.5,-227.7,-68.1,58693
-0.01760216642048252,0.04482034819113471,1.0075530511929025,-0.0076293945,0.15258789,0.0381469725,-124.5,-232.5,-68.1,58978
-0.01809453471196455,0.04642548462773182,1.0047955880589858,0.0228881835,0.0686645505,0.0686645505,-131.7,-232.5,-69.3,59262
-0.017109798129000493,0.04420298802321274,1.0053950365663589,-0.0228881835,0.0991821285,-0.045776367,-134.1,-237.29999999999998,-68.7,59548
-0.017479074347612013,0.0449438202247191,1.0086320585061743,-0.015258789,0.1296997065,0.0076293945,-129.29999999999998,-227.7,-68.7,59833
-0.017355982274741506,0.0449438202247191,1.0071933820884786,-0.0534057615,0.045776367,-0.015258789,-122.1,-227.7,-68.7,60118
-0.017109798129000493,0.045561180392641065,1.0051552571634097,0.1144409175,0.0534057615,-0.0076293945,-126.89999999999999,-227.7,-67.5,60403
-0.017971442639094042,0.049141869366588466,1.0081524997002758,-0.0076293945,0.1296997065,0.0,-124.5,-230.1,-68.1,60688
-0.01846381093057607,0.046672428694900604,1.0071933820884786,0.0,0.106811523,-0.0076293945,-129.29999999999998,-227.7,-68.7,60972
-0.0189561792220581,0.04506729225830349,1.0047955880589858,0.0228881835,0.0839233395,0.030517578,-126.89999999999999,-230.1,-68.1,61257
-0.01846381093057607,0.04506729225830349,1.0101906246253447,0.045776367,0.045776367,-0.045776367,-124.5,-230.1,-68.1,61542
-0.019448547513540127,0.04741326089640696,1.006354154178156,0.0534057615,0.0839233395,-0.0381469725,-122.1,-230.1,-68.7,61828
-0.01587887740029542,0.047907149030744535,1.0079127202973264,0.0991821285,0.0991821285,-0.061035156,-119.69999999999999,-230.1,-69.3,62114
-0.01674052191038897,0.044573404123965925,1.0095911761179714,-0.030517578,0.061035156,-0.0076293945,-131.7,-230.1,-68.1,62400
-0.019448547513540127,0.04296826768736881,1.0069536026855292,-0.0228881835,0.091552734,-0.061035156,-126.89999999999999,-225.29999999999998,-66.89999999999999,62686
-0.016986706056129987,0.04519076429188789,1.0075530511929025,0.0,0.015258789,-0.0686645505,-124.5,-232.5,-68.1,62972
-0.03151157065484983,0.03111495246326707,1.005754705670783,0.076293945,0.183105468,-0.228881835,-131.7,-225.29999999999998,-67.5,63258
-0.022648941408173313,0.03555994567230522,1.0099508452223953,0.0686645505,0.473022459,-4.2648315255,-124.5,-227.7,-69.3,63543
0.02634170359428853,0.07939251759476479,1.0088718379091237,0.015258789,0.1754760735,-3.402709947,-124.5,-232.5,-69.3,63828
-0.05957656326932546,0.032596616866279786,1.0089917276105982,0.1754760735,0.2670288075,0.76293945,-124.5,-227.7,-69.3,64112
0.0011078286558345643,0.05543894307939252,1.007073492387004,-0.0686645505,-0.2365112295,-1.1062622025,-124.5,-227.7,-69.3,64397
-0.0224027572624323,0.04383257192245956,1.00671382328258,0.0228881835,0.030517578,-0.6942748995,-131.7,-227.7,-69.89999999999999,64681
-0.018217626784835055,0.04395604395604396,1.0074331614914278,0.061035156,0.0991821285,-0.2517700185,-126.89999999999999,-230.1,-68.7,64969
-0.009970457902511078,0.04975922953451043,1.0106701834312433,-0.030517578,0.198364257,-0.3128051745,-124.5,-230.1,-69.3,65254
-0.012309207287050714,0.043462155821706386,1.0089917276105982,-0.167846679,-0.1754760735,1.6860961845,-126.89999999999999,-230.1,-68.7,65539
-0.027572624322993598,0.04358562785529078,1.0068337129840548,-0.1602172845,-0.1144409175,2.0980834875,-131.7,-230.1,-68.7,65824
-0.019202363367799114,0.04568465242622546,1.0075530511929025,-0.1296997065,-0.106811523,1.281738276,-126.89999999999999,-225.29999999999998,-66.89999999999999,66111
-0.012801575578532743,0.04951228546734165,1.006354154178156,-0.0839233395,-0.0076293945,0.259399413,-126.89999999999999,-230.1,-66.89999999999999,66396
-0.023018217626784836,0.07889862946042721,1.0079127202973264,-0.0839233395,-0.061035156,0.2517700185,-126.89999999999999,-230.1,-68.7,66682
-0.046282619399310686,0.08544264724040004,1.0106701834312433,-0.1144409175,-0.137329101,-2.2659301665,-124.5,-234.89999999999998,-68.1,66967
-0.013293943870014771,-0.005556241511297691,1.008032609998801,-0.183105468,-0.244140624,-6.210327123,-124.5,-227.7,-68.1,67253
0.0206794682422452,-0.017903444869737006,1.0081524997002758,-0.061035156,0.015258789,-5.111694315,-126.89999999999999,-234.89999999999998,-67.5,67539
-0.0120630231413097,0.05247561427336708,1.0085121688046996,0.2365112295,0.3128051745,-0.3890991195,-122.1,-227.7,-66.89999999999999,67826
-0.014155588380108322,0.03654772194098037,1.0073132717899533,0.106811523,0.198364257,0.6790161105,-131.7,-222.9,-66.89999999999999,68111
-0.0038158542589857214,0.03296703296703297,1.008392279103225,0.2975463855,-0.0076293945,2.8762817265,-129.29999999999998,-232.5,-67.5,68397
-0.012555391432791729,0.01852080503765897,1.0052751468648844,0.4959106425,-0.2212524405,5.508422829,-122.1,-225.29999999999998,-69.89999999999999,68683
-0.03914327917282127,0.030991480429682677,1.0052751468648844,0.701904294,-0.411987303,8.4152221335,-131.7,-222.9,-67.5,68969
-0.03421959625800099,0.06309420916162489,1.0105502937297686,0.350952147,-0.3738403305,9.368896446,-129.29999999999998,-230.1,-68.7,69253
-0.011693746922698178,0.0685269786393382,1.0105502937297686,0.244140624,-0.137329101,7.156372041,-129.29999999999998,-227.7,-68.1,69539
-0.007139340226489414,0.07766390912458328,1.0094712864164967,0.3128051745,0.0,3.6544799655,-126.89999999999999,-227.7,-69.89999999999999,69823
-0.022033481043820777,0.07470058031855785,1.0091116173120729,0.0381469725,0.1296997065,1.342773432,-129.29999999999998,-232.5,-69.89999999999999,70112
-0.022895125553914326,0.049388813433757256,1.010790073132718,-0.1907348625,0.3433227525,-1.571655267,-126.89999999999999,-225.29999999999998,-69.89999999999999,70400
-0.021787296898079764,0.04531423632547228,1.008032609998801,-0.2212524405,0.335693358,-1.449584955,-129.29999999999998,-227.7,-66.3,70687
-0.020802560315115706,0.028522039757994815,1.0045558086560364,-0.167846679,0.106811523,-1.3046264595000001,-126.89999999999999,-234.89999999999998,-69.89999999999999,70972
-0.0002461841457410143,0.021854549944437585,1.0049154777604603,-0.137329101,0.0,-0.656127927,-124.5,-232.5,-68.1,71259
0.0022156573116691287,0.028151623657241633,1.0053950365663589,0.0839233395,-0.076293945,1.8539428635,-126.89999999999999,-222.9,-68.1,71543
-0.018217626784835055,0.029262871959501172,1.007073492387004,0.274658202,-0.3890991195,5.8059692145,-124.5,-232.5,-67.5,71829
-0.026834071885770555,0.04654895666131621,1.0059944850737321,0.2975463855,-0.4653930645,7.7133178395,-126.89999999999999,-230.1,-69.3,72113
-0.01846381093057607,0.06939128287442894,1.0092315070135476,0.381469725,-0.0534057615,6.439208958,-129.29999999999998,-232.5,-68.1,72399
-0.01563269325455441,0.05778491171749599,1.0106701834312433,0.3280639635,0.1296997065,4.074096663,-129.29999999999998,-227.7,-67.5,72686
-0.018586903003446578,0.047042844795653786,1.0044359189545617,0.2212524405,0.1754760735,1.022338863,-129.29999999999998,-227.7,-69.89999999999999,72971
-0.01674052191038897,0.05901963205333992,1.00671382328258,0.2822875965,0.183105468,1.8234252855,-129.29999999999998,-230.1,-68.1,73258
-0.005785327424913836,0.04741326089640696,1.0075530511929025,0.274658202,0.2822875965,1.4114379825,-126.89999999999999,-230.1,-66.89999999999999,73543
-0.005292959133431807,0.04272132362020002,1.0061143747752068,0.274658202,0.2059936515,0.5416870095,-126.89999999999999,-232.5,-69.89999999999999,73829
-0.02671097981290005,0.04161007531794049,1.0056348159693083,0.3890991195,0.411987303,0.4196166975,-129.29999999999998,-232.5,-67.5,74115
0.0006154603643525357,0.046919372762069395,1.0068337129840548,0.595092771,0.6790161105,0.6332397435,-129.29999999999998,-230.1,-68.1,74400
-0.0086164451009355,0.052599086306951474,1.0089917276105982,0.91552734,1.083374019,1.7623901295,-134.1,-230.1,-67.5,74685
-0.03188084687346135,0.05667366341523645,1.0099508452223953,1.5335082945,1.8997192305,2.5863647355,-129.29999999999998,-232.5,-68.1,74970
-0.03840472673559823,0.05185825410544512,1.002997242536866,2.685546864,3.448486314,2.380371084,-131.7,-227.7,-66.89999999999999,75258
0.0038158542589857214,0.024323990616125446,1.0113895216400912,1.6326904230000001,1.907348625,-0.976562496,-129.29999999999998,-227.7,-67.5,75543
-0.0017232890201870998,0.04519076429188789,1.002997242536866,1.174926753,1.296997065,-3.6697387545,-136.5,-234.89999999999998,-68.7,75830
0.112136878385032,0.0022224966045190763,1.0166646685049754,-9.1552734,-8.3236693995,-9.3917846295,-129.29999999999998,-232.5,-69.3,76115
0.07471688823239783,0.05692060748240523,1.024217719697878,-6.3705444075,-5.294799783,-8.3847045555,-129.29999999999998,-232.5,-68.7,76402
-0.03212703101920236,0.10865538955426596,1.0068337129840548,-1.8844604415,0.4653930645,-4.0359496905,-134.1,-232.5,-69.3,76687
-0.011324470704086657,0.03457216940363008,0.99664308835871,-1.7776489185,0.045776367,-0.30517578,-131.7,-232.5,-68.7,76972
0.01292466765140325,-0.0014816644030127175,1.0062342644766815,-0.350952147,0.045776367,2.365112295,-124.5,-230.1,-69.3,77257
0.02671097981290005,0.0023459686381034697,1.00671382328258,0.2212524405,0.4501342755,4.1732787915,-131.7,-227.7,-69.3,77542
0.030403741999015264,0.03568341770588961,1.008032609998801,0.8621215785,1.495361322,7.705688445,-129.29999999999998,-222.9,-69.89999999999999,77828
0.05551452486459872,0.02358315841461909,1.0131878671622108,1.754760735,2.7236938365,5.966186499,-134.1,-227.7,-69.3,78114
0.0673313638601674,0.012717619459192493,1.0093513967150223,3.8833618005,5.050659159,7.904052702,-134.1,-232.5,-69.3,78399
0.053545051698670604,0.022718854179528337,1.0071933820884786,4.1427612135,5.462646462,11.993408154,-134.1,-220.5,-68.1,78685
0.06351550960118169,0.014693171996542784,1.0139072053710587,1.098632808,3.112792956,15.5715941745,-131.7,-227.7,-70.5,78974
0.06265386509108814,0.025064822817631807,1.0190624625344682,-4.5700073055,0.076293945,17.990112231,-138.9,-225.29999999999998,-71.1,79260
0.061299852289512555,0.03222620076552661,1.0166646685049754,-11.047363236,-2.182006827,17.288207937,-134.1,-222.9,-69.3,79546
0.08050221565731167,0.01901469317199654,1.013067977460736,-13.7252807055,-0.8010864225,12.268066356,-131.7,-222.9,-69.89999999999999,79831
0.10032003938946332,0.03827633041116187,0.9802181992566839,-10.711669878,2.380371084,4.8294067185,-134.1,-218.1,-70.5,80117
0.061299852289512555,0.009260402518829485,1.0133077568636855,-4.5547485165,7.2860717475,-9.6054076755,-136.5,-227.7,-70.5,80406
0.06486952240275726,0.035189529571552046,1.0119889701474643,4.135131819,3.372192369,-15.41137689,-138.9,-218.1,-71.7,80691
0.0914574101427868,0.0718607235461168,1.025896175518523,10.6811523,0.7400512665,-17.257690359,-134.1,-220.5,-71.7,80978
0.06659281142294436,0.10692678108408446,0.9988011029852536,18.8217162315,4.6157836725,-16.113281184,-136.5,-222.9,-71.7,81267
0.059330379123584444,0.07704654895666131,1.0098309555209208,17.7993773685,6.179809545,-12.81738276,-134.1,-222.9,-73.5,81554
0.055391432791728215,0.052846030374120265,1.032969667905527,12.435913035,3.81469725,-8.7051391245,-136.5,-227.7,-72.89999999999999,81839
-0.003569670113244707,0.08692431164341277,1.017863565519722,6.759643527,4.043579085,-5.3634643335,-134.1,-225.29999999999998,-72.3,82126
0.008493353028064993,0.08927028028151623,0.9971226471646085,3.3950805525,2.838134754,-5.3024291775,-138.9,-225.29999999999998,-74.1,82412
0.009847365829640572,0.031238424496851463,1.0053950365663589,3.128051745,2.4337768455,-4.486083966,-146.1,-225.29999999999998,-73.5,82697
0.022895125553914326,0.01728608470181504,1.0052751468648844,0.793457028,0.015258789,-5.096435526,-146.1,-222.9,-74.7,82983
0.02892663712456918,0.034819113470798864,1.0059944850737321,-0.4043579085,-1.617431634,-5.447387673,-143.7,-225.29999999999998,-73.5,83269
0.02794190054160512,0.059760464254846275,1.00671382328258,-1.6098022395,-2.7389526255,-7.6293945,-148.5,-227.7,-73.5,83554
0.025726243229935993,0.07334238794912952,1.0101906246253447,-0.9994506795,-1.8844604415,-9.063720666,-148.5,-227.7,-73.5,83840
0.004431314623338257,0.08494875910606248,1.015465771490229,0.778198239,0.0381469725,-9.048461877,-146.1,-225.29999999999998,-73.5,84125
0.01563269325455441,0.0702555871095197,1.0142668744754826,1.2741088815,0.274658202,-7.1487426465,-148.5,-225.29999999999998,-75.3,84411
0.02486459871984244,0.050253117668848005,0.9954441913439636,0.6942748995,-0.2670288075,-2.8610229375,-158.1,-227.7,-73.5,84695
0.05305268340718858,0.06506976169897519,0.9990408823882029,-0.2822875965,-1.3656616155,3.646850571,-155.7,-220.5,-74.7,84981
-0.010585918266863614,0.04395604395604396,1.0193022419374176,0.3433227525,-0.4806518535,-2.2354125885,-158.1,-220.5,-75.89999999999999,85265
-0.03520433284096504,0.04099271515001852,1.020501138952164,0.946044918,0.2822875965,-5.0582885535,-153.29999999999998,-218.1,-74.7,85553
0.01120137863121615,0.05185825410544512,0.989569595971706,0.885009762,0.244140624,-10.345458942,-155.7,-218.1,-73.5,85838
-0.03692762186115214,0.06136560069144339,1.0177436758182472,1.785278313,1.586914056,-11.13891597,-153.29999999999998,-220.5,-75.3,86124
-0.027695716395864108,0.10396345227805902,1.0280541901450666,2.4795532125,3.768920883,-8.117675748,-165.29999999999998,-218.1,-74.1,86410
0.015263417035942885,0.14112853438696135,1.0414818367102265,0.7400512665,6.698608371,-3.952026351,-160.5,-213.29999999999998,-76.5,86696
0.08124076809453472,0.09778985059883936,1.0009591176117971,-1.6860961845,9.46044918,-2.0828246985,-162.9,-213.29999999999998,-75.89999999999999,86981
0.10462826193993106,0.04173354735152488,0.9935259561203693,-1.403808588,6.607055637,-1.5792846615,-165.29999999999998,-222.9,-75.89999999999999,87267
0.025110782865583457,0.04889492529941968,0.9977220956719818,7.675170867,-2.166748038,-1.4266967715,-162.9,-203.7,-75.3,87554
0.016494337764647957,0.08235584640079022,1.0179834552211966,4.9057006635,-1.7776489185,0.106811523,-172.5,-213.29999999999998,-74.7,87840
-0.0038158542589857214,0.06222990492653414,1.0134276465651602,-1.1062622025,2.639770497,0.45776367,-165.29999999999998,-208.5,-75.89999999999999,88127
0.0014771048744460858,0.04272132362020002,1.0106701834312433,-2.578735341,5.615234352,-1.67846679,-167.7,-206.1,-76.5,88413
0.025603151157065487,0.05790838375108038,0.9956839707469128,-3.540039048,6.4163207745,-4.4174194155,-172.5,-206.1,-75.3,88699
-0.00258493353028065,0.07395974811705149,0.9961635295528114,-4.653930645,4.486083966,-5.1956176545,-167.7,-206.1,-75.3,88985
-0.010955194485475135,0.10124706753920237,1.0134276465651602,-1.098632808,-0.198364257,-4.531860333,-170.1,-201.29999999999998,-74.1,89270
-0.011939931068439193,0.13013952339795037,1.0110298525356671,1.113891597,-0.8316040005,-3.2577514515,-172.5,-206.1,-75.3,89556
0.005046774987690792,0.11050747005803185,1.0190624625344682,0.7553100555,0.625610349,-3.570556626,-172.5,-196.5,-74.7,89840
0.10413589364844904,0.05074700580318558,1.0074331614914278,0.0991821285,2.8610229375,-0.640869138,-174.9,-201.29999999999998,-73.5,90125
0.0896110290497292,0.06272379306087171,0.9980817647764058,0.488281248,0.76293945,-1.693725579,-174.9,-198.9,-74.1,90410
0.06967011324470704,0.062106432892949745,1.0113895216400912,0.686645505,-0.7095336885,-3.5629272315,-174.9,-201.29999999999998,-74.7,90697
0.023879862136878385,0.04988270156809483,1.0232586020860808,0.961303707,-0.30517578,-5.981445288,-174.9,-194.1,-74.7,90983
-0.0030773018217626785,0.031608840597604645,1.0333293370099508,1.4266967715,2.380371084,-8.255004849,-172.5,-196.5,-73.5,91269
-0.019079271294928608,0.024694406716878628,1.02014146984774,1.953124992,6.896972628,-5.5618285905,-177.29999999999998,-194.1,-72.89999999999999,91554
0.004062038404726735,-0.01963205333991851,1.001678455820645,2.3117065335,7.858276335,-2.13623046,-174.9,-191.7,-72.3,91841
0.056129985228951254,-0.05247561427336708,0.9954441913439636,2.777099598,4.394531232,-1.6555786065,-177.29999999999998,-189.29999999999998,-72.89999999999999,92126
0.04714426390940423,-0.034942585504383256,0.9830955520920753,1.708984368,0.3280639635,3.982543929,-182.1,-186.9,-72.3,92413
0.08936484490398819,0.07667613285590813,1.0009591176117971,3.067016589,-10.940551713,16.0598754225,-186.9,-174.9,-72.3,92697
0.1136139832594781,0.07729349302383011,1.001678455820645,2.6473998915,-12.1536254385,22.705078032,-184.5,-184.5,-72.3,92982
0.10844411619891679,0.08655389554265959,1.011749190744515,2.44140624,-12.252807567,27.77099598,-186.9,-186.9,-71.7,93269
0.1413096996553422,0.11174219039387578,1.0363265795468168,2.5253295795,-10.6811523,23.971557519,-191.7,-177.29999999999998,-71.7,93555
0.17319054652880356,0.129398691196444,1.0667785637213762,4.180908186,-5.8212280035,14.19067377,-191.7,-177.29999999999998,-71.1,93840
0.2048252092565239,0.13421410050623533,1.073612276705431,7.995605436,-0.0076293945,1.4877319275,-189.29999999999998,-174.9,-72.3,94127
0.1995322501230921,0.12137300901345845,1.0473564320824842,15.8767699545,1.4266967715,-12.6876830535,-191.7,-167.7,-71.1,94412
0.1914081733136386,0.11470551919990123,1.018103344922671,25.2304076115,-3.219604479,-28.8009642375,-201.29999999999998,-167.7,-70.5,94698
0.12875430822255046,0.07976293369551797,0.9854933461215681,28.2058714665,-9.0103149045,-42.4575803925,-191.7,-174.9,-68.7,94983
0.14192516001969474,0.09198666502037288,1.006354154178156,23.468017482,-6.7367553435,-45.0057981555,-194.1,-177.29999999999998,-68.1,95268
0.0966272772033481,0.07840474132608964,0.974103824481477,16.2429808905,-1.403808588,-48.8204954055,-191.7,-172.5,-67.5,95553
0.08234859675036928,0.0664279540684035,0.9705071334372377,10.192871052,-2.349853506,-50.6973264525,-191.7,-177.29999999999998,-67.5,95840
0.07656326932545544,0.09149277688603531,0.9705071334372377,4.287719709,-3.097534167,-51.9943235175,-182.1,-170.1,-67.5,96125
0.07163958641063516,0.09272749722187924,0.9788994125404628,-1.98364257,-2.59399413,-52.7572629675,-186.9,-179.7,-65.7,96412
0.051698670605613,0.06247684899370293,1.0250569476082005,-5.142211893,-2.59399413,-56.0989377585,-184.5,-177.29999999999998,-66.3,96698
0.11336779911373708,0.11581676750216076,1.0254166167126244,-4.2800903145,-3.0136108275,-60.2798459445,-179.7,-172.5,-66.3,96985
0.09785819793205318,0.12458328188665267,0.9941254046277425,-0.2822875965,-5.49316404,-63.9419553045,-179.7,-170.1,-66.89999999999999,97270
0.048005908419497784,0.051487838004691935,1.025176837309675,7.095336885,-4.043579085,-73.4176632735,-179.7,-174.9,-65.7,97556
0.04529788281634663,0.24768489937029262,0.9742237141829517,9.323120079,-1.1825561475,-74.035644228,-174.9,-179.7,-63.3,97841
0.05391432791728213,0.1531053216446475,0.944850737321664,7.263183564,1.144409175,-78.201293625,-170.1,-177.29999999999998,-65.7,98126
0.10056622353520434,0.018150388936905792,0.971106581944611,0.900268551,1.1672973585,-75.5233761555,-170.1,-177.29999999999998,-65.1,98413
0.024741506646971934,-0.10038276330411162,0.91092195180434,-11.6500854015,3.8375854335,-56.6482541625,-170.1,-174.9,-63.9,98699
-0.04714426390940423,-0.12359550561797752,0.9514446709027694,-20.7138060675,-4.27246092,-41.80908186,-162.9,-177.29999999999998,-63.3,98984
-0.08173313638601674,0.029262871959501172,1.041721616113176,-27.191161998,-6.637573215,-38.3834837295,-160.5,-172.5,-64.5,99270
-0.1582964057114722,0.10507470058031856,1.115333892818607,-22.323608307,-2.517700185,-56.510925061500004,-165.29999999999998,-170.1,-63.3,99556
0.0638847858197932,0.2124953697987406,0.9693082364224913,14.511108339,-7.2250365915,-65.1473996355,-165.29999999999998,-174.9,-62.699999999999996,99842
-0.19411619891678975,0.05420422274354859,1.1343963553530751,20.9426879025,-0.6179809545,-41.50390608,-160.5,-165.29999999999998,-61.5,100127
-0.0006154603643525357,0.16977404617854056,1.0762498501378732,26.8325804565,-3.906249984,-40.9469602815,-158.1,-174.9,-61.5,100413
0.02498769079271295,0.09285096925546364,0.9230308116532789,25.283813373,3.250122057,-40.5807493455,-155.7,-170.1,-60.9,100697
0.011816838995568686,-0.05605630324731448,1.0453183071574152,27.6718138515,-1.556396478,-29.9911497795,-153.29999999999998,-177.29999999999998,-62.099999999999994,100985
-0.0482520925652388,0.07087294727744166,0.9703872437357631,27.8854368975,1.388549799,-21.118163976,-155.7,-170.1,-60.9,101271
-0.048005908419497784,0.075688356587233,1.0131878671622108,25.207519428,-1.296997065,-22.514343169500002,-150.9,-170.1,-58.5,101557
-0.05637616937469227,0.0774169650574145,1.007073492387004,24.3301390605,-0.320434569,-28.549194219,-153.29999999999998,-165.29999999999998,-60.3,101843
-0.1362629246676514,0.03914063464625262,1.0297326459657115,24.398803611,0.640869138,-30.4946898165,-150.9,-167.7,-57.9,102131
-0.10241260462826195,0.17002099024570935,1.0088718379091237,34.3093870665,0.411987303,-32.6004026985,-148.5,-172.5,-58.5,102416
-0.1357705563761694,0.048154093097913325,0.9914878311953004,33.8821409745,1.5182495055,-28.8467406045,-146.1,-167.7,-57.9,102702
-0.06843919251600197,0.08741819977775034,0.9774607361227671,42.343139475,-5.691528297,-20.568847572,-143.7,-172.5,-56.1,102987
-0.06856228458887248,0.07692307692307693,0.9809375374655317,34.9960325715,-9.3154906845,-8.9797973265,-143.7,-179.7,-56.1,103272
-0.14241752831117677,0.07618224472157056,0.9812972065699557,20.278930581,-11.2686156765,-1.1062622025,-148.5,-172.5,-57.3,103559
-0.1362629246676514,0.16088405976046424,0.9063661431483035,13.27514643,-12.1383666495,0.2975463855,-148.5,-170.1,-59.699999999999996,103845
-0.1704825209256524,0.1333497962711446,0.9408943771730008,-1.2130737255,-12.9470824665,-3.158569323,-153.29999999999998,-170.1,-56.699999999999996,104131
-0.1931314623338257,0.1095196937893567,0.9932861767174199,-8.132934537,-9.9716186115,-8.865356409,-146.1,-167.7,-54.3,104420
-0.24556868537666174,0.09667860229657982,1.0352475722335452,-11.077880814,5.661010719,-20.462036049,-150.9,-167.7,-54.9,104707
-0.16789758739537175,0.08643042350907519,1.0701354753626664,-11.9247436035,7.5302123715,-31.1813353215,-148.5,-167.7,-53.699999999999996,104995
-0.20913343180699162,0.050376589702432396,1.051073012828198,-9.246826134,3.3798217635,-34.5687864795,-138.9,-165.29999999999998,-56.699999999999996,105283
-0.23559822747415066,0.008396098283738733,1.0526315789473684,-10.665893511,-8.605956996,-28.274536017,-141.29999999999998,-167.7,-57.3,105569
-0.02880354505169867,0.26583528830719844,0.90085121688047,-10.360717731,-15.0985717155,-21.469116123,-143.7,-172.5,-57.9,105854
-0.23227474150664698,0.06556364983331275,0.8578108140510731,-7.01904294,-13.229370063,-19.7067259935,-141.29999999999998,-170.1,-57.3,106141
-0.16297390448055146,0.17212001481664402,1.002038124925069,-4.394531232,-8.3999633445,-18.264770433,-138.9,-170.1,-57.9,106426
-0.05920728705071394,0.07247808371403877,0.8560124685289534,-0.9841918905,0.6637573215,-15.8157347985,-136.5,-172.5,-56.699999999999996,106712
-0.12038404726735598,0.11297691072971972,0.936458458218439,-0.625610349,6.1111449945,-12.2604369615,-143.7,-162.9,-57.3,107000
0.014524864598719843,0.12260772934930238,0.9874115813451625,-22.537231353,-4.318237287,-2.4032592675,-146.1,-170.1,-57.9,107288
-0.18783850320039389,-0.10198789974070872,1.0557487111857091,-32.913207873,-10.1852416575,6.6757201875,-138.9,-167.7,-59.099999999999994,107574
-0.09231905465288036,0.16310655636498333,0.9466490828437837,-38.1240843165,-14.389038027,13.626098577,-143.7,-167.7,-59.699999999999996,107862
-0.10647464303298868,0.06630448203481912,1.0667785637213762,-36.7660520955,-14.4424437885,13.534545843,-141.29999999999998,-158.1,-59.699999999999996,108150
-0.10807483998030527,0.05074700580318558,1.0483155496942813,-31.3644407895,-13.076782173,14.6255492565,-150.9,-160.5,-59.699999999999996,108442
-0.10536681437715412,-0.051364365971107544,1.062582424169764,-21.8124388755,-9.6969604095,15.71655267,-146.1,-158.1,-60.3,108729
-0.16617429837518463,0.014446227929373997,0.9936458458218439,-14.8544310915,-6.7672729215,17.013549735,-150.9,-162.9,-62.099999999999994,109018
-0.15300344657804038,0.05543894307939252,1.090756504016305,-7.1487426465,-15.213012633,12.7944945765,-150.9,-155.7,-60.9,109304
-0.21528803545051697,-0.02592912705272256,1.0,-9.9258422445,-5.569457985,5.722045875,-158.1,-158.1,-60.9,109592
-0.21491875923190545,-0.04864798123225089,0.9772209567198178,-15.624999936,-0.778198239,8.7356567025,-155.7,-158.1,-60.9,109877
-0.21541112752338748,0.011729843190517349,0.9928066179115214,-19.6914672045,-0.885009762,14.95361322,-158.1,-160.5,-59.099999999999994,110165
-0.1707287050713934,0.09260402518829484,1.0008392279103224,-20.90454093,0.045776367,20.263671792,-160.5,-153.29999999999998,-60.3,110450
-0.11225997045790251,0.11742190393875787,1.0002397794029494,-19.9203490395,2.9983520385,22.6364134815,-160.5,-160.5,-60.9,110736
-0.08259478089611029,0.12273120138288678,0.9851336770171443,-18.753051681,6.484985325,18.692016525,-165.29999999999998,-153.29999999999998,-60.9,111025
-0.08530280649926145,0.10717372515125324,0.9792590816448867,-20.431518471,9.246826134,8.6898803355,-160.5,-146.1,-60.9,111312
-0.1709748892171344,0.01777997283615261,0.9976022059705071,-22.73559561,12.893676705,-2.5100707905,-165.29999999999998,-155.7,-60.9,111597
-0.19620876415558838,-0.03642424990739598,1.0386044838748352,-28.274536017,13.641357366,-10.0784301345,-165.29999999999998,-153.29999999999998,-62.099999999999994,111884
-0.07594780896110291,-0.03704161007531794,0.9719458098549335,-34.1567991765,12.0162963375,-3.494262681,-172.5,-148.5,-62.699999999999996,112172
-0.18660758247168882,-0.20965551302629953,1.1685649202733486,-29.7775267335,12.725830026,4.0359496905,-170.1,-148.5,-62.699999999999996,112458
-0.09293451501723289,0.028892455858747994,0.9751828317947489,0.0,2.914428699,2.28881835,-172.5,-148.5,-60.9,112744
0.01070901033973412,0.39622175577231755,0.9827358829876514,3.250122057,-0.366210936,5.34057615,-172.5,-150.9,-62.699999999999996,113029
-0.11004431314623338,-0.1921224842573157,0.9947248531351157,0.4348754865,-1.251220698,14.007568302,-174.9,-150.9,-63.3,113314
-0.14020187099950762,-0.13927645388319546,0.9546816928425849,-2.1438598545,-0.488281248,24.1012572255,-182.1,-155.7,-63.3,113603
-0.13761693746922699,-0.25287072478083716,1.0448387483515167,-3.2653808460000002,-3.7918090665,35.980224462,-177.29999999999998,-150.9,-63.9,113889
-0.2588626292466765,-0.08062723793060872,0.9621148543340127,-0.1907348625,0.595092771,45.4635618255,-184.5,-150.9,-61.5,114175
-0.08702609551944855,0.07692307692307693,0.982855772689126,0.198364257,0.45776367,37.6968382245,-184.5,-146.1,-61.5,114460
-0.12616937469226983,0.0342017533028769,1.038964152979259,0.350952147,0.274658202,41.580200025,-182.1,-141.29999999999998,-61.5,114747
-0.1516494337764648,0.013581923694283245,1.0170243376093993,-0.0991821285,-0.3433227525,43.2815549985,-186.9,-146.1,-62.099999999999994,115032
-0.12309207287050714,0.05790838375108038,1.0058745953722574,-0.366210936,-1.022338863,42.144775218,-191.7,-146.1,-62.099999999999994,115318
-0.10438207779419005,0.03272008889986418,1.0064740438796307,-0.4043579085,-0.823974606,40.847778153,-191.7,-148.5,-60.3,115603
-0.07459379615952733,0.007408322015063588,1.0187027934300443,-0.7858276335,-1.06811523,38.574218592,-191.7,-146.1,-62.099999999999994,115888
-0.024372230428360415,-0.03407828126929251,1.0363265795468168,-3.8833618005,-1.663208001,34.2788694885,-201.29999999999998,-143.7,-60.9,116174
-0.0004923682914820286,-0.038523274478330656,1.0112696319386165,-11.29150386,0.473022459,28.9916991,-198.9,-138.9,-61.5,116460
-0.012678483505662235,0.075688356587233,1.0028773528353914,-13.7710570725,0.976562496,24.749755758,-198.9,-141.29999999999998,-61.5,116746
0.008370260955194485,0.143844919125818,1.0103105143268194,-12.7944945765,0.8773803675,25.4592894465,-198.9,-131.7,-62.699999999999996,117032
-0.0038158542589857214,0.1454500555624151,0.9922071694041482,-13.671874944,1.464843744,23.1857298855,-194.1,-134.1,-61.5,117317
-0.0023387493845396356,0.10124706753920237,0.9851336770171443,-9.76562496,2.3117065335,18.9590453325,-198.9,-138.9,-61.5,117604
-0.03569670113244707,0.05198172613902951,0.9988011029852536,-4.226684553,3.7765502775,15.121459899,-194.1,-134.1,-60.3,117890
-0.02375677006400788,-0.019385109272749723,1.0058745953722574,-3.906249984,3.860473617,15.579223569,-201.29999999999998,-136.5,-61.5,118177
0.0012309207287050715,-0.04123965921718731,0.9977220956719818,-4.3106078925,2.380371084,20.3781127095,-203.7,-138.9,-60.3,118462
-0.046282619399310686,0.013211507593530066,1.00671382328258,-2.319335928,1.2130737255,26.138305557,-206.1,-131.7,-60.9,118749
-0.13687838503200395,0.06951475490801333,1.0185829037285696,-2.563476552,0.7095336885,25.9399413,-203.7,-134.1,-60.9,119035
-0.14586410635155095,0.06519323373255957,1.0175038964152978,-7.0419311235,2.456665029,5.79833982,-203.7,-126.89999999999999,-59.699999999999996,119322
-0.09465780403742,0.018644277071243363,1.0129480877592614,-9.872436483,2.5863647355,-2.5405883685,-208.5,-136.5,-61.5,119607
0.009231905465288036,-0.04123965921718731,0.9982016544778803,-12.1231078605,1.1672973585,-5.096435526,-201.29999999999998,-138.9,-60.3,119893
0.05502215657311669,-0.04370909988887517,0.9836950005994485,-9.6206664645,0.9994506795,-4.8294067185,-206.1,-134.1,-60.9,120180
-0.022279665189561794,0.03111495246326707,1.0076729408943772,-1.144409175,1.2741088815,3.448486314,-198.9,-136.5,-60.9,131197
-0.01243229935992122,0.0197555253735029,1.0093513967150223,-0.885009762,0.9689331015,4.9667358195,-206.1,-136.5,-60.3,131486
-0.03323485967503693,0.02444746264970984,1.0049154777604603,-0.6179809545,0.518798826,7.568359344,-203.7,-138.9,-60.9,131772
-0.0448055145248646,0.029015927892332385,1.0086320585061743,-0.350952147,0.0,8.666992152,-201.29999999999998,-138.9,-61.5,132057
-0.05723781388478582,0.021854549944437585,1.0075530511929025,0.15258789,-0.442504881,8.2626342435,-201.29999999999998,-136.5,-62.099999999999994,132343
-0.05846873461349089,0.027657735522904063,1.0082723894017505,2.502441396,-3.0136108275,9.933471639,-206.1,-141.29999999999998,-61.5,132630
-0.06154603643525357,0.04383257192245956,1.0075530511929025,3.311157213,-3.707885727,14.633178651,-203.7,-136.5,-61.5,132916
-0.042097488921713444,0.04642548462773182,1.0074331614914278,3.9138793785,-4.287719709,19.012451094,-208.5,-136.5,-59.099999999999994,133203
-0.02031019202363368,0.04284479565378442,1.0058745953722574,4.3869018375,-4.8141479295,20.156860269,-201.29999999999998,-131.7,-60.9,133489
-0.022525849335302807,0.036053833806642795,1.0098309555209208,4.0664672685,-4.8904418745000005,20.614623939,-201.29999999999998,-136.5,-59.099999999999994,133776
-0.026834071885770555,0.02321274231386591,1.0074331614914278,3.7460326995,-4.7531127735,21.6140746185,-208.5,-136.5,-61.5,134062
-0.044066962087641555,0.036300777873811585,1.007792830595852,4.2495727365,-5.096435526,21.408080967,-210.9,-131.7,-61.5,134347
-0.07139340226489414,0.037535498209655516,1.0113895216400912,4.7683715625,-5.935668921,19.233703534500002,-208.5,-131.7,-60.3,134632
-0.029172821270310192,0.0629707371280405,1.023858050593454,4.0054321125,-5.7754516365,12.0925902825,-206.1,-126.89999999999999,-60.3,134918
-0.025603151157065487,0.05309297444128905,1.0300923150701355,6.088256811,-1.251220698,6.317138646,-213.29999999999998,-131.7,-60.9,135206
-0.059945839487936976,0.06556364983331275,1.0304519841745594,6.8588256555000005,4.8751830855,0.4043579085,-210.9,-138.9,-60.9,135491
-0.09613490891186607,0.06432892949746882,1.00671382328258,3.2272338735,8.8424682255,-1.37329101,-208.5,-134.1,-60.9,135777
-0.12026095519448547,0.032596616866279786,0.9990408823882029,-0.122070312,9.9868774005,1.892089836,-210.9,-131.7,-60.9,136071
-0.09330379123584441,0.0342017533028769,0.962354633736962,0.5722045875,5.096435526,7.644653289,-208.5,-134.1,-60.9,136361
-0.031634662727720336,0.055191999012223734,1.058146505215202,7.5302123715,-2.7389526255,12.756347604,-201.29999999999998,-131.7,-59.699999999999996,136648
-0.1932545544066962,0.03222620076552661,0.9931662870159453,-1.5640258725,4.1427612135,18.951415938,-208.5,-129.29999999999998,-60.3,136935
-0.07090103397341212,0.03272008889986418,1.0098309555209208,-3.906249984,1.67846679,20.202636636,-208.5,-134.1,-62.099999999999994,137223
-0.08259478089611029,0.05901963205333992,1.001678455820645,-2.151489249,3.7918090665,22.3617552795,-206.1,-124.5,-60.3,137512
-0.0482520925652388,0.07457710828497345,1.0146265435799064,-3.311157213,1.1978149365,21.6445921965,-206.1,-129.29999999999998,-59.699999999999996,137797
0.026095519448547513,0.11927398444252377,1.0340486752187987,-4.0969848465,0.793457028,5.0125121865,-206.1,-124.5,-61.5,138085
0.00258493353028065,0.04000493888134338,1.0294928665627623,-4.028320296,6.240844701,-17.715454029,-203.7,-134.1,-60.9,138370
-0.08173313638601674,-0.033707865168539325,0.9925668385085721,-2.2811889555000002,11.489868117,-15.182495055,-208.5,-126.89999999999999,-61.5,138656
-0.08333333333333333,-0.047042844795653786,0.9615154058266395,-2.8610229375,9.902954061,-8.2015990875,-196.5,-126.89999999999999,-60.9,138943
-0.03655834564254062,-0.055315471045808126,0.9601966191104184,-2.7694702035,3.7765502775,-8.514404262,-201.29999999999998,-129.29999999999998,-61.5,139230
-0.041851304775972424,-0.026299543153475737,0.9806977580625824,3.8528442225,1.007080074,-9.506225547,-203.7,-126.89999999999999,-62.699999999999996,139516
-0.03434268833087149,0.012347203358439314,1.0240978299964034,10.1852416575,-0.4043579085,-12.3519896955,-189.29999999999998,-129.29999999999998,-61.5,139803
-0.04899064500246184,0.026176071119891346,1.0394437117851576,5.7296752695,-1.159667964,-11.2380980985,-196.5,-131.7,-62.099999999999994,140092
-0.09268833087149188,-0.030497592295345103,1.0177436758182472,0.076293945,-0.91552734,-10.711669878,-194.1,-126.89999999999999,-62.699999999999996,140379
-0.14758739537173807,-0.025805655019138164,0.9898093753746553,3.097534167,1.174926753,-8.0490111975,-191.7,-136.5,-62.099999999999994,140665
-0.12973904480551451,0.024077046548956663,1.0022779043280183,9.780883749000001,2.105712882,-7.3165893255,-191.7,-129.29999999999998,-63.3,140952
-0.10536681437715412,0.057537967650327204,1.0094712864164967,15.197753844,4.608154278,-9.063720666,-196.5,-124.5,-62.699999999999996,141238
-0.09059576563269325,0.030621064328929498,1.015465771490229,19.241332929,8.041381803,-12.1841430165,-191.7,-129.29999999999998,-62.099999999999994,141527
-0.10315115706548499,0.0847018150388937,1.073612276705431,21.1410521595,8.140563931500001,-14.846801697,-184.5,-131.7,-63.9,141814
-0.0620384047267356,-0.005062353376960119,1.0111497422371418,11.1618041535,3.0746459835,-9.9563598225,-182.1,-124.5,-62.699999999999996,142100
-0.08247168882323978,0.0377824422768243,1.022898932981657,16.876220634,0.4501342755,-4.8599242965,-184.5,-131.7,-63.9,142387
-0.06437715411127523,0.07334238794912952,1.0211005874595371,19.6762084155,-0.9841918905,0.473022459,-184.5,-131.7,-62.099999999999994,142674
-0.02671097981290005,0.06593406593406594,1.0176237861167725,21.621704013,-2.2354125885,3.494262681,-179.7,-136.5,-62.699999999999996,142960
-0.04160512063023141,0.03975799481417459,1.0197818007433161,24.2843626935,-4.6615600395,6.6604613985,-182.1,-136.5,-62.099999999999994,143247
-0.1136139832594781,0.04975922953451043,1.034288454621748,27.130126842,-5.050659159,8.361816372,-179.7,-134.1,-62.699999999999996,143533
-0.12272279665189562,0.0847018150388937,1.0411221676058027,31.0897825875,-3.433227525,9.933471639,-172.5,-136.5,-62.099999999999994,143820
-0.09207287050713935,0.11384121496481046,1.0495144467090276,34.7518919475,-0.167846679,13.8168334395,-177.29999999999998,-134.1,-61.5,144106
-0.07114721811915313,0.04049882701568095,1.00335691164129,31.509399285,-3.601074204,14.701843201500001,-177.29999999999998,-131.7,-62.099999999999994,144392
-0.0983505662235352,0.06173601679219657,0.9738640450785278,32.3410032855,-8.5067748675,20.5001830215,-184.5,-131.7,-62.099999999999994,144678
-0.12333825701624815,0.12680577849117175,0.9959237501498621,24.063110253,-11.856079053,20.9579466915,-182.1,-134.1,-62.099999999999994,144966
-0.13884785819793205,0.08371403877021855,1.0139072053710587,5.3939819115,-11.5585326675,11.13891597,-177.29999999999998,-134.1,-59.099999999999994,145252
-0.12518463810930577,0.029015927892332385,1.0094712864164967,0.411987303,-8.5067748675,10.009765584,-177.29999999999998,-134.1,-61.5,145539
-0.0947808961102905,0.09383874552413879,1.018103344922671,9.1629027945,-6.0043334715,16.891479423,-174.9,-131.7,-59.699999999999996,145825
-0.06265386509108814,0.13964686998394862,1.0248171682052511,11.978149365,-7.2250365915,20.5154418105,-174.9,-129.29999999999998,-59.699999999999996,146112
-0.061915312653865094,0.125941474256081,1.018822683131519,8.895873987,-9.689331015,18.3792113505,-174.9,-131.7,-58.5,146399
-0.06634662727720335,0.1113717742931226,1.0031171322383408,5.6228637465,-10.2615356025,13.046264595,-177.29999999999998,-126.89999999999999,-59.099999999999994,146685
-0.07323978335795175,0.13742437337942956,1.0131878671622108,-0.5874633765,-6.698608371,3.9901733235,-174.9,-124.5,-57.3,146971
-0.05563761693746923,0.12359550561797752,1.0002397794029494,-4.745483379,-2.5558471575,0.0686645505,-177.29999999999998,-122.1,-59.099999999999994,147258
-0.06806991629739045,0.12013828867761452,0.9876513607481118,-4.0817260575,0.3128051745,-2.5405883685,-172.5,-124.5,-56.1,147547
-0.06757754800590841,0.14149895048771452,0.9968828677616592,-1.4419555605,1.190185542,-2.960205066,-182.1,-129.29999999999998,-56.1,147834
-0.06216149679960611,0.16310655636498333,1.0028773528353914,-0.0991821285,1.785278313,-1.5945434505,-177.29999999999998,-114.89999999999999,-57.9,148119
-0.06560807483998031,0.17570070379059144,0.994604963433641,2.029418937,3.2653808460000002,-1.5487670835,-167.7,-126.89999999999999,-56.699999999999996,148406
-0.07607090103397342,0.15508087418199779,1.0104304040282939,5.95092771,4.7988891405,-4.0969848465,-172.5,-122.1,-56.1,148692
-0.10450516986706056,0.13359674033831337,1.0049154777604603,8.285522427,6.896972628,-6.225585912,-167.7,-114.89999999999999,-56.1,148979
-0.13023141309699654,0.11606371156932954,0.9652319865723534,4.516601544,2.120971671,2.7236938365,-170.1,-122.1,-56.699999999999996,149265
-0.14377154111275234,0.12581800222249662,0.9817767653758542,1.190185542,-2.7999877815,6.4468383525,-170.1,-122.1,-59.099999999999994,149554
-0.14340226489414082,0.12816397086060008,0.9701474643328138,1.0910034135,-4.3869018375,8.1100463535,-174.9,-124.5,-56.1,149840
-0.14623338257016247,0.12013828867761452,0.9630739719458099,4.791259746,-4.11987303,8.6288451795,-172.5,-119.69999999999999,-55.5,150129
-0.16445100935499754,0.10890233362143474,0.9562402589617552,7.3928832705,-2.1743774325,9.1781615835,-172.5,-117.3,-57.9,150415
-0.14561792220580994,0.1349549327077417,0.9715861407505095,6.347656224,0.0839233395,10.635375933,-170.1,-122.1,-56.699999999999996,150701
-0.09785819793205318,0.15248796147672553,0.963673420453183,1.7623901295,1.0299682575,11.90185542,-177.29999999999998,-124.5,-56.699999999999996,150987
-0.07336287543082226,0.13409062847265094,0.9769811773168685,-1.9760131755,2.7542114145,12.634277292,-172.5,-112.5,-57.9,151275
-0.03865091088133924,0.1654525250030868,0.984893897614195,5.5923461685,3.540039048,13.88549799,-172.5,-129.29999999999998,-54.9,151560
-0.007385524372230428,0.18039264106679836,0.9846541182112456,9.1552734,0.091552734,15.548705991,-174.9,-124.5,-56.1,151847
-0.020433284096504186,0.20187677491048278,0.9928066179115214,9.2239379505,-3.0593871945,15.5258178075,-177.29999999999998,-119.69999999999999,-55.5,152132
-0.05120630231413097,0.1885417952833683,0.9816568756743795,7.3165893255,-4.5623779110000005,11.535644484,-172.5,-124.5,-56.1,152419
-0.052191038897095025,0.16681071737251513,0.9574391559765016,9.9105834555,-2.395629873,7.4081420595,-179.7,-122.1,-57.9,152707
-0.06253077301821763,0.12075564884553648,0.9592375014986213,12.1078490715,1.2741088815,7.308959931,-177.29999999999998,-124.5,-55.5,152994
-0.04419005416051206,0.11050747005803185,0.9540822443352116,12.008666943,4.180908186,9.735107382,-174.9,-129.29999999999998,-54.9,153280
-0.023633677991137372,0.13730090134584516,0.9675098909003716,4.241943342,4.394531232,10.848998979,-177.29999999999998,-124.5,-54.9,153566
0.008370260955194485,0.1347079886405729,0.9743436038844263,-6.271362279,2.4337768455,3.8528442225,-172.5,-126.89999999999999,-54.9,153852
-0.060438207779419,0.1312507717002099,0.9874115813451625,-6.2637328845,3.7765502775,-5.371093728,-167.7,-131.7,-54.9,154138
-0.07090103397341212,0.13594270897641683,1.0002397794029494,-2.2659301665,2.944946277,-0.6027221655,-177.29999999999998,-131.7,-55.5,154424
-0.07336287543082226,0.16594641313742436,1.0300923150701355,-0.473022459,1.159667964,10.2920531805,-174.9,-124.5,-53.699999999999996,154710
-0.07114721811915313,0.20743301642178047,1.0716940414818368,-4.821777324,0.8010864225,14.6102904675,-179.7,-131.7,-55.5,154996
-0.04345150172328902,0.18582541054451165,1.0707349238700397,-9.262084923,0.289916991,6.2332153065,-182.1,-122.1,-56.1,155283
-0.02141802067946824,0.16965057414495616,1.0583862846181513,-2.655029286,3.3950805525,-0.564575193,-177.29999999999998,-131.7,-54.3,155568
-0.042466765140324964,0.1352018767749105,1.0423210646205492,3.9291381675,6.515502903,-0.885009762,-177.29999999999998,-126.89999999999999,-57.3,155855
-0.056499261447562774,0.10001234720335844,1.0145066538784318,5.371093728,5.279540994,2.1286010655,-179.7,-134.1,-54.9,156142
-0.08062530773018217,0.12470675392023707,1.0135475362666346,-5.2871703885,-0.5416870095,15.945434505,-177.29999999999998,-126.89999999999999,-56.699999999999996,156429
-0.06856228458887248,0.17014446227929375,1.0190624625344682,-11.428832961,-2.2659301665,17.166137625,-179.7,-138.9,-56.699999999999996,156715
-0.05760709010339734,0.11989134461044573,1.0109099628341924,-18.46313469,-4.165649397,8.880615198,-179.7,-134.1,-55.5,157002
-0.04517479074347612,0.1329793801703914,1.0028773528353914,-14.7628783575,-4.302978498,8.331298794,-177.29999999999998,-138.9,-56.1,157287
-0.08197932053175776,0.16310655636498333,1.0052751468648844,-10.8566283735,-0.9536743125,7.6522826835,-177.29999999999998,-143.7,-57.3,157573
-0.05822255046774988,0.0719841955797012,0.9844143388082963,-9.7579955655,1.5029907165,6.072998022,-179.7,-143.7,-56.1,157860
-0.0241260462826194,0.07247808371403877,0.966071214482676,0.0228881835,5.294799783,15.9683226885,-182.1,-136.5,-56.699999999999996,158149
0.0,0.1456969996295839,0.9733844862726292,3.7155151215,8.270263638,18.234252855,-182.1,-141.29999999999998,-57.3,158435
0.02498769079271295,0.037535498209655516,0.9486872077688526,-2.9373168825000002,8.9645385375,5.0735473425,-182.1,-143.7,-57.3,158720
-0.009970457902511078,0.07433016421780467,0.9554010310514327,5.7144164805,6.896972628,16.448974542,-177.29999999999998,-143.7,-57.3,159007
-0.029049729197439686,0.15656253858501049,0.9898093753746553,8.23974606,1.5945434505,25.711059465,-177.29999999999998,-146.1,-56.699999999999996,159294
-0.04739044805514525,0.15952586739103594,1.0091116173120729,0.381469725,-2.151489249,23.010253812,-177.29999999999998,-146.1,-56.1,159579
-0.08000984736582964,0.07111989134461044,0.9706270231387124,-8.54492184,-1.2283325145,17.6467894785,-177.29999999999998,-150.9,-58.5,159866
-0.09059576563269325,0.029386343993085567,0.9360987891140151,-3.96728514,3.372192369,20.3170775535,-189.29999999999998,-143.7,-58.5,160153
-0.07188577055637617,0.045437708359056674,0.952283898813092,4.592895489,7.720947234,27.92358387,-174.9,-155.7,-58.5,160441
-0.06782373215164944,0.08359056673663415,0.962354633736962,2.74658202,9.963989217,32.5241087535,-184.5,-150.9,-59.699999999999996,160727
-0.055760709010339735,0.0664279540684035,0.9320225392638772,-6.881713839,7.644653289,35.736083838,-191.7,-146.1,-59.099999999999994,161013
-0.005662235352043328,0.11075441412520064,0.9346601126963194,-9.5596313085,5.432128884,25.0015257765,-186.9,-146.1,-58.5,161298
-0.05809945839487937,0.04272132362020002,0.9652319865723534,-9.8648070885,10.0784301345,19.027709883,-186.9,-150.9,-60.9,161586
-0.06573116691285082,0.06741573033707865,0.9821364344802781,-3.311157213,9.1934203725,29.6859739995,-191.7,-150.9,-60.3,161872
-0.07336287543082226,0.13594270897641683,1.0293729768612876,-0.473022459,5.7601928475,34.622192241,-184.5,-150.9,-60.9,162158
-0.07951747907434761,0.15582170638350415,1.0858410262558447,-3.143310534,3.96728514,24.246215721,-191.7,-146.1,-60.3,162444
-0.15472673559822747,0.13149771576737868,1.0742117252128043,-8.5983276015,7.01904294,19.775390544,-191.7,-155.7,-61.5,162733
-0.18870014771048743,0.07408322015063588,1.0516724613355712,-10.0326537675,7.7743529955,26.8325804565,-186.9,-150.9,-62.699999999999996,163020
-0.12518463810930577,0.11594023953574516,1.0538304759621149,-3.799438461,7.93457028,35.4843138195,-191.7,-153.29999999999998,-62.099999999999994,163308
0.03643525356967011,0.25114211631065564,1.1033449226711425,0.396728514,8.0184936195,3.9749145345,-198.9,-150.9,-63.3,163594
-0.03729689807976366,0.10408692431164342,1.0697758062582423,-12.7487182095,17.85278313,-11.779785108,-196.5,-148.5,-60.9,163880
-0.032373215164943375,0.002839856772441042,1.007792830595852,-7.446289032,20.462036049,-5.5160522235,-194.1,-150.9,-62.699999999999996,164166
0.038527818808468735,0.04654895666131621,1.0244574991008273,13.000488228,19.98901359,-11.322021438,-191.7,-158.1,-63.9,164452
-0.03385032003938946,0.1240893937523151,1.0586260640211005,15.3427123395,18.0282592035,-6.9656371785,-194.1,-162.9,-64.5,164737
-0.10044313146233383,0.08334362266946536,1.039683491188107,6.1035156,9.643554648,3.463745103,-189.29999999999998,-165.29999999999998,-63.9,165024
-0.14451009354997538,0.07173725151253241,1.0436398513367702,5.4244994895,2.8305053595,10.772705034,-189.29999999999998,-162.9,-63.3,165311
-0.1726981782373215,0.11581676750216076,1.053470806857691,8.361816372,3.20434569,9.948730428,-191.7,-162.9,-65.7,165599
-0.13663220088626293,0.1308803555994567,1.0287735283539143,3.173828112,5.6381225355,7.3928832705,-189.29999999999998,-165.29999999999998,-65.1,165884
-0.0448055145248646,0.13384368440548217,0.9989209926867282,0.8926391565,4.2648315255,1.2741088815,-186.9,-162.9,-65.1,166171
-0.026464795667159036,0.15779725892085442,0.9881309195540103,5.4550170675,6.637573215,-8.9035033815,-194.1,-167.7,-65.1,166456
-0.025233874938453964,0.10309914804296827,0.9730248171682052,5.447387673,11.1465453645,-15.4953002295,-191.7,-167.7,-64.5,166742
0.027695716395864108,0.09099888875169775,0.9489269871718019,9.506225547,14.6255492565,-27.7786253745,-184.5,-174.9,-65.1,167030
0.022525849335302807,0.08865292011359427,0.9526435679175159,12.115478466,17.2195433865,-37.0254515085,-182.1,-170.1,-67.5,167317
-0.04985228951255539,0.06556364983331275,0.9508452223953963,10.818481401,13.1454467235,-32.1273802395,-182.1,-177.29999999999998,-65.7,167603
-0.10819793205317578,0.075688356587233,0.9649922071694041,11.062622025,4.42504881,-14.8391723025,-177.29999999999998,-177.29999999999998,-66.3,167889
-0.1344165435745938,0.12124953697987406,0.9521640091116174,9.4680785745,-0.900268551,3.799438461,-186.9,-182.1,-65.7,168176
-0.18057607090103397,0.08606000740832201,0.9585181632897735,7.3623656925,-6.1035156,30.3726195045,-179.7,-191.7,-66.3,168462
-0.1533727227966519,0.13631312507717003,0.9732645965711545,3.585815415,-8.9492797485,43.5104368335,-184.5,-182.1,-66.3,168747
-0.07804037419990152,0.08902333621434745,0.9684690085121688,-1.022338863,-7.095336885,39.810180501,-184.5,-186.9,-68.7,169034
-0.05120630231413097,0.12668230645758735,0.9901690444790793,0.3738403305,-2.7236938365,34.423827984,-186.9,-191.7,-67.5,169320
-0.09170359428852781,0.13804173354735153,0.9818966550773288,-4.837036113,1.403808588,35.766601416,-191.7,-186.9,-66.89999999999999,169606
-0.07594780896110291,0.13977034201753302,0.9570794868720777,-11.322021438,-0.244140624,46.829223441,-196.5,-184.5,-68.1,169891
-0.06006893156080748,0.16582294110384,0.965711545378252,-15.1443480825,-6.698608371,51.3076780125,-184.5,-186.9,-70.5,170177
-0.08370260955194485,0.18570193851092728,1.0014386764176957,-12.5961303195,-10.955810502,54.550170675,-184.5,-182.1,-66.89999999999999,170462
-0.12419990152634171,0.2087912087912088,1.0454381968588897,-6.790161105,-10.025024373,57.4722287685,-186.9,-174.9,-69.89999999999999,170750
-0.12296898079763663,0.18755401901469318,1.0603045198417456,0.1296997065,-1.98364257,44.7769163205,-194.1,-182.1,-71.7,171036
-0.12013786312161497,0.16137794789480184,1.025176837309675,5.5007934345,4.226684553,32.0510862945,-191.7,-191.7,-71.7,171322
-0.09354997538158542,0.1352018767749105,1.0226591535787075,7.4386596375,9.9563598225,21.9192503985,-194.1,-189.29999999999998,-69.89999999999999,171607
-0.054775972427375676,0.12223731324854921,1.0142668744754826,3.5171508645,16.464233331,15.151977477,-196.5,-194.1,-71.1,171894
-0.01292466765140325,0.11458204716631683,0.9881309195540103,-4.6463012505,19.927978434,15.8462523765,-194.1,-194.1,-71.7,172179
0.0534219596258001,0.09840721076676133,0.9526435679175159,-18.4097289285,14.6865844125,20.6680297005,-184.5,-196.5,-69.3,172465
0.10081240768094535,0.04049882701568095,0.9560004795588058,-24.5742796845,5.584716774,26.6036986215,-179.7,-194.1,-69.89999999999999,172751
0.06302314130969966,0.07519446845289542,0.9881309195540103,-18.356323167,0.61035156,37.8952024815,-184.5,-191.7,-72.89999999999999,173037
0.06080748399803053,0.16088405976046424,1.0334492267114255,-16.235351496,-7.93457028,42.922973457,-182.1,-191.7,-72.3,173324
0.08382570162481537,0.11433510309914804,1.0230188226831316,-10.513305621,-8.796691858500001,36.1557005355,-182.1,-194.1,-72.3,173611
0.112136878385032,0.06766267440424743,1.0179834552211966,0.640869138,-9.292602501,28.640746953,-179.7,-201.29999999999998,-73.5,173897
0.12050713934022649,0.060871712557105814,1.00671382328258,9.1323852165,-5.981445288,20.736694251,-174.9,-196.5,-71.1,174183
0.18857705563761692,0.059883936288430674,0.9806977580625824,9.231567345,-2.426147451,8.575439418,-182.1,-201.29999999999998,-72.89999999999999,174468
0.18746922698178237,0.04519076429188789,0.9356192303081166,1.724243157,-0.0381469725,3.5934448095000002,-165.29999999999998,-201.29999999999998,-72.89999999999999,174755
0.1603889709502708,0.008519570317323127,0.9243495983695,-6.576538059,-3.692626938,7.598876922,-172.5,-201.29999999999998,-71.7,175042
0.16826686361398327,0.055315471045808126,0.9501258841865484,-7.78198239,-9.857177694,8.071899381,-167.7,-208.5,-71.1,175328
0.13380108321024126,0.09840721076676133,0.9923270591056228,-8.3847045555,-9.2086791615,5.691528297,-165.29999999999998,-198.9,-71.7,175615
0.15238798621368785,0.08519570317323126,1.0453183071574152,-12.573242136,-2.166748038,-3.5171508645,-162.9,-201.29999999999998,-71.7,175903
0.1859921221073363,0.09420916162489196,1.0545498141709626,-12.191772411,-2.532958974,-10.4598998595,-162.9,-201.29999999999998,-69.89999999999999,176189
0.20236336779911374,0.19656747746635386,1.1013067977460735,-16.921997001,-7.1945190135,-13.389587347500001,-158.1,-196.5,-70.5,176476
0.21331856228458887,0.08186195826645265,1.0118690804459898,-30.4336546605,-9.9411010335,-12.4588012185,-153.29999999999998,-196.5,-70.5,176762
0.1501723289020187,0.052722558340535866,1.0418415058146506,-21.789550692,-11.7721557135,-11.59667964,-153.29999999999998,-198.9,-71.7,177049
0.1451255539143279,0.09235708112112606,1.0377652559645127,-17.440795827,-11.764526319,-13.000488228,-148.5,-206.1,-71.7,177334
0.11262924667651403,0.08260279046795901,1.0365663589497662,-17.303466726,-6.8283080775,-20.843505774,-153.29999999999998,-196.5,-70.5,177621
0.09970457902511078,0.05482158291147055,1.0270950725332695,-15.640258725,-3.1204223505,-27.542114145,-138.9,-186.9,-72.3,177909
0.14980305268340718,0.05469811087788616,1.0116293010430404,-11.6348266125,-3.3798217635,-28.488159063,-146.1,-194.1,-71.7,178196
0.10610536681437716,0.05235214223978269,1.0328497782040522,-12.084960888,-2.2964477445,-25.375366107,-138.9,-194.1,-71.1,178484
0.10413589364844904,0.04333868378812199,1.0323702193981537,-11.5432738785,1.083374019,-23.5824583995,-136.5,-186.9,-70.5,178770
0.12223042836041359,0.01777997283615261,1.0286536386524399,-10.5209350155,3.4561157085,-22.43041983,-136.5,-196.5,-70.5,179057
0.13355489906450024,-0.0006173601679219657,1.0213403668624865,-6.942748995,1.1520385695,-20.0729369295,-136.5,-194.1,-69.3,179344
0.14574101427868044,0.05667366341523645,1.0298525356671862,-0.9994506795,-3.8070678555,-16.0598754225,-134.1,-186.9,-70.5,179629
0.12678483505662236,0.10989010989010989,1.0449586380529912,3.540039048,-4.623413067,-14.450073183,-126.89999999999999,-191.7,-69.89999999999999,179916
0.13195470211718366,0.13026299543153474,1.0499940055149262,8.4457397115,-2.6016235245,-17.9519652585,-131.7,-186.9,-69.89999999999999,180202
0.07964057114721812,0.027287319422150885,1.0390840426807337,16.5481566705,2.2964477445,-24.3911742165,-129.29999999999998,-189.29999999999998,-68.7,180490
0.023141309699655343,0.02247191011235955,1.0147464332813811,18.966674727,2.716064442,-24.5895384735,-131.7,-186.9,-69.3,180778
-0.03225012309207287,0.10100012347203359,1.02685529313032,20.29418937,3.3035278185,-28.213500861,-124.5,-196.5,-66.89999999999999,181066
-0.025110782865583457,0.1060624768489937,1.0039563601486632,13.748168889,5.462646462,-27.450561411,-119.69999999999999,-203.7,-68.7,181351
0.013540128015755786,0.010371650821089023,0.9272269512048915,6.301879857,1.8234252855,-17.456054616,-124.5,-198.9,-68.7,181639
0.05625307730182176,0.025435238918384985,0.9426927226951205,8.4609985005,-7.2402953805,-7.1945190135,-131.7,-194.1,-67.5,181925
0.023018217626784836,0.11087788615878504,0.9726651480637813,9.2849731065,-11.8637084475,2.8152465705,-114.89999999999999,-194.1,-66.3,182211
0.032003938946331856,0.1060624768489937,0.9727850377652559,7.0419311235,-10.7955932175,8.010864225,-124.5,-196.5,-66.89999999999999,182496
0.030773018217626784,0.07210766761328559,0.9733844862726292,7.095336885,-7.0266723345,8.2168578765,-122.1,-189.29999999999998,-68.7,182783
0.00012309207287050715,0.14841338436844054,1.0219398153698598,-1.7318725515,0.2212524405,9.8342895105,-124.5,-189.29999999999998,-66.89999999999999,183069
-0.003569670113244707,0.12989257933078158,1.003716580745714,-13.0996703565,1.205444331,5.294799783,-119.69999999999999,-191.7,-68.1,183356
-0.023141309699655343,0.10396345227805902,1.022179594772809,-13.42773432,0.579833982,-0.2517700185,-124.5,-196.5,-68.7,183643
-0.04554406696208764,0.11038399802444747,1.029253087159813,-9.8342895105,0.518798826,-3.2119750845,-124.5,-196.5,-68.7,183929
-0.027818808468734614,0.1291517471292752,1.0330895576070016,-5.844116187,-0.4196166975,-5.157470682,-119.69999999999999,-191.7,-67.5,184217
-0.020064007877892663,0.13791826151376713,1.025536506414099,-1.2893676705,-0.503540037,-5.981445288,-122.1,-194.1,-66.89999999999999,184503
-0.03508124076809453,0.12816397086060008,1.012828198057787,1.98364257,-0.4196166975,-6.439208958,-126.89999999999999,-198.9,-70.5,184789
-0.047021171836533725,0.10803802938634399,0.9955640810454381,2.944946277,-0.213623046,-7.8811645185,-124.5,-196.5,-68.7,185076
-0.01883308714918759,0.07754043709099889,0.9669104423929984,-3.189086901,0.4959106425,-3.5781860205,-124.5,-186.9,-69.3,185361
-0.0072624322993599215,0.09408568959130757,0.961035847020741,-9.6511840425,-0.2517700185,-1.846313469,-119.69999999999999,-191.7,-68.1,185648
-0.07447070408665682,0.08964069638226942,0.9775806258242417,-16.0446166335,0.198364257,-4.257202131,-126.89999999999999,-194.1,-68.1,185933
-0.07447070408665682,0.09976540313618966,0.9829756623906006,-20.324706948,0.76293945,-8.6898803355,-124.5,-189.29999999999998,-68.1,186221
-0.012801575578532743,0.10297567600938387,0.9883706989569596,-24.551391501,-0.183105468,-8.23974606,-124.5,-196.5,-70.5,186507
-0.025726243229935993,0.08914680824793185,0.9900491547776046,-28.137206916,-0.8316040005,-5.1803588655,-119.69999999999999,-189.29999999999998,-69.89999999999999,186794
-0.04603643525356967,0.11272996666255093,1.01007073492387,-29.8690794675,-0.747680661,-6.1416625725,-122.1,-182.1,-69.3,187080
-0.05637616937469227,0.11248302259538215,1.02014146984774,-27.9617308425,0.0076293945,-6.9351196005,-122.1,-186.9,-71.1,187367
-0.07890201870999508,-0.058649215952586736,1.182472125644407,-21.865844637,-4.6157836725,-3.234863268,-124.5,-191.7,-71.7,187652
-0.04849827671097981,0.08247931843437462,0.9954441913439636,-2.1896362215,-5.0430297645,-2.914428699,-126.89999999999999,-179.7,-71.1,187940
-0.10056622353520434,0.0718607235461168,0.9763817288094953,-4.5394897275,-7.6980590505,-2.212524405,-122.1,-189.29999999999998,-69.89999999999999,188228
-0.0361890694239291,0.011482899123348562,1.0111497422371418,-6.0501098385,-10.7040404835,-3.219604479,-131.7,-189.29999999999998,-71.1,188514
-0.00775480059084195,0.04012841091492777,1.0140270950725332,-5.1345824985,-9.5596313085,-6.149291967,-119.69999999999999,-184.5,-71.1,188801
-0.01760216642048252,0.04741326089640696,1.0089917276105982,-6.500244114,-10.0021361895,-8.6441039685,-126.89999999999999,-184.5,-70.5,189091
-0.006154603643525357,0.04049882701568095,1.0169044479079248,-6.6299438205,-9.7122191985,-8.880615198,-122.1,-182.1,-71.1,189377
0.039512555391432794,0.04247437955303124,1.0194221316388923,-2.0217895425,-4.5700073055,-10.482788043,-124.5,-184.5,-70.5,189664
0.006154603643525357,0.04840103716508211,1.015106102385805,1.4419555605,0.259399413,-12.191772411,-122.1,-186.9,-72.3,189950
-0.0054160512063023145,0.04630201259414742,1.007792830595852,-1.0452270465,-0.396728514,-8.4152221335,-114.89999999999999,-189.29999999999998,-71.1,190236
-0.023387493845396356,0.02370663044820348,1.0038364704471885,-0.76293945,-0.3280639635,-7.308959931,-122.1,-186.9,-69.89999999999999,190523
-0.03175775480059084,0.019878997407087293,1.0046756983575111,-0.30517578,0.0686645505,-6.5689086645,-124.5,-194.1,-70.5,190810
-0.02708025603151157,0.04605506852697864,1.0059944850737321,-0.0839233395,0.15258789,-5.6228637465,-124.5,-186.9,-70.5,191096
-0.008739537173806006,0.05704407951598963,1.0097110658194461,-0.1907348625,-0.0076293945,-4.5700073055,-117.3,-191.7,-71.1,191383
-0.03729689807976366,-0.0023459686381034697,1.0031171322383408,-0.3585815415,-0.091552734,-4.0359496905,-129.29999999999998,-186.9,-71.7,191670
-0.04283604135893648,0.038770218545499446,1.003716580745714,0.2059936515,0.1602172845,-7.7590942065,-119.69999999999999,-186.9,-70.5,191956
0.013293943870014771,0.13248549203605384,1.0140270950725332,0.2670288075,0.167846679,-8.1710815095,-119.69999999999999,-182.1,-69.89999999999999,192242
-0.060315115706548496,0.037535498209655516,1.0094712864164967,-0.030517578,-0.3128051745,-9.6206664645,-119.69999999999999,-186.9,-69.89999999999999,192529
-0.0241260462826194,0.04519076429188789,1.0075530511929025,0.198364257,-0.137329101,-13.1149291455,-117.3,-186.9,-70.5,192817
-0.01637124569177745,0.06519323373255957,1.0147464332813811,0.213623046,-0.0534057615,-13.031005806,-119.69999999999999,-191.7,-72.3,193104
-0.029419005416051205,0.04951228546734165,1.0071933820884786,0.0686645505,-0.0076293945,-12.1841430165,-117.3,-196.5,-70.5,193390
-0.01624815361890694,0.0377824422768243,1.0059944850737321,-0.015258789,-0.0534057615,-13.0081176225,-114.89999999999999,-194.1,-69.3,193676
0.005662235352043328,0.02210149401160637,1.0088718379091237,0.137329101,-0.1296997065,-13.259887641,-114.89999999999999,-191.7,-69.89999999999999,193963
0.008985721319547021,0.012594147425608099,1.0086320585061743,0.2212524405,0.015258789,-10.543823199,-114.89999999999999,-191.7,-71.1,194251
0.014524864598719843,0.02802815162365724,1.0076729408943772,0.0991821285,0.106811523,-5.3634643335,-114.89999999999999,-189.29999999999998,-69.89999999999999,194536
-0.03434268833087149,0.05482158291147055,1.010790073132718,0.045776367,0.0,-0.0991821285,-119.69999999999999,-189.29999999999998,-70.5,194823
-0.016863613983259477,0.049388813433757256,1.0093513967150223,0.0534057615,-0.0839233395,-1.190185542,-114.89999999999999,-191.7,-68.1,195110
-0.031634662727720336,0.04716631682923818,1.008392279103225,0.0991821285,-0.0076293945,-1.22070312,-112.5,-194.1,-69.89999999999999,195396
-0.02031019202363368,0.038770218545499446,1.0065939335811054,0.030517578,-0.0076293945,-1.67846679,-114.89999999999999,-189.29999999999998,-69.3,195682
-0.010093549975381585,0.0539572786763798,1.0073132717899533,-0.0839233395,0.0,-3.219604479,-114.89999999999999,-189.29999999999998,-70.5,195969
-0.04948301329394387,0.049141869366588466,1.0059944850737321,0.0686645505,0.198364257,-4.3258666815,-124.5,-191.7,-71.1,196255
-0.016494337764647957,0.04803062106432893,1.0071933820884786,0.259399413,0.3128051745,-7.5912475275,-119.69999999999999,-198.9,-69.89999999999999,196542
-0.022648941408173313,0.09457957772564514,1.0019182352235942,0.091552734,0.2365112295,-9.063720666,-114.89999999999999,-189.29999999999998,-71.1,196829
-0.057976366322008865,0.0880355599456723,1.0079127202973264,-0.0839233395,-0.1144409175,-13.3590697695,-119.69999999999999,-186.9,-68.1,197116
-0.025603151157065487,0.06222990492653414,1.0082723894017505,0.106811523,0.061035156,-24.902343648,-112.5,-194.1,-68.1,197401
-0.01501723289020187,0.05889616001975553,1.0085121688046996,0.1449584955,-0.0076293945,-25.756835832,-114.89999999999999,-194.1,-69.3,197688
-0.021787296898079764,0.05309297444128905,1.0069536026855292,0.1144409175,-0.0839233395,-24.2843626935,-112.5,-186.9,-71.1,197975
-0.012801575578532743,0.03914063464625262,1.0069536026855292,0.2365112295,-0.15258789,-22.338867096,-110.1,-189.29999999999998,-69.3,198262
0.0012309207287050715,0.011235955056179775,1.0074331614914278,0.1449584955,-0.0991821285,-19.7372435715,-110.1,-194.1,-70.5,198548
0.03569670113244707,-0.018644277071243363,1.008032609998801,0.122070312,0.0076293945,-15.6021117525,-112.5,-201.29999999999998,-68.1,198835
0.04517479074347612,-0.02827509569082603,1.0074331614914278,0.228881835,0.2517700185,-6.011962866,-114.89999999999999,-198.9,-70.5,199123
-0.026957163958641065,0.03679466600814915,1.0065939335811054,0.3738403305,0.366210936,4.1580200025,-114.89999999999999,-198.9,-70.5,199410
-0.015386509108813392,0.04062229904926534,1.0071933820884786,-0.091552734,-0.6790161105,6.027221655,-110.1,-196.5,-68.7,199695
-0.04234367306745446,0.05469811087788616,1.0065939335811054,0.2822875965,-0.7095336885,5.5770873795,-107.7,-194.1,-71.1,199981
-0.05563761693746923,0.037535498209655516,1.008032609998801,0.0534057615,-0.869750973,3.585815415,-119.69999999999999,-198.9,-69.89999999999999,200267
-0.02031019202363368,0.03667119397456476,1.01007073492387,-0.289916991,-1.0910034135,-0.0534057615,-117.3,-198.9,-69.89999999999999,200559
0.011447562776957163,0.07235461168045437,1.010790073132718,-0.2822875965,-1.06811523,-0.579833982,-110.1,-196.5,-68.7,200845
-0.022279665189561794,0.08593653537473762,1.007792830595852,-0.0839233395,-0.595092771,1.083374019,-107.7,-189.29999999999998,-69.3,201134
-0.0413589364844904,0.0755648845536486,1.0064740438796307,-0.137329101,-0.183105468,0.320434569,-105.3,-194.1,-69.89999999999999,201420
-0.020433284096504186,0.05679713544882084,1.0092315070135476,-0.015258789,-0.030517578,-1.9760131755,-112.5,-191.7,-70.5,201706
-0.019079271294928608,0.03407828126929251,1.0061143747752068,0.0839233395,0.0076293945,-2.273559561,-107.7,-194.1,-69.3,201991
-0.04554406696208764,0.01419928386220521,1.00671382328258,-0.0381469725,-0.2365112295,-1.998901359,-112.5,-196.5,-70.5,202278
-0.051698670605613,0.002716384738856649,1.0056348159693083,0.015258789,-0.503540037,-4.669189434,-114.89999999999999,-198.9,-69.3,202563
-0.027572624322993598,0.029386343993085567,1.0097110658194461,0.2975463855,-0.6179809545,-7.9116820965,-117.3,-198.9,-71.1,202850
-0.0022156573116691287,0.0645758735646376,1.0101906246253447,0.167846679,-0.6027221655,-9.063720666,-112.5,-196.5,-69.3,203135
0.001846381093057607,0.08396098283738733,1.008751948207649,0.228881835,-0.4348754865,-9.567260703,-105.3,-191.7,-71.1,203422
-0.001600196947316593,0.08247931843437462,1.0065939335811054,0.2517700185,0.0228881835,-9.6817016205,-112.5,-198.9,-71.1,203707
0.005046774987690792,0.0665514261019879,1.0082723894017505,0.3738403305,0.442504881,-9.7885131435,-112.5,-198.9,-69.89999999999999,203994
0.0072624322993599215,0.056426719348067665,1.011749190744515,0.4348754865,0.2517700185,-9.826660116,-105.3,-194.1,-70.5,204279
-0.08677991137370754,0.01654525250030868,0.998321544179355,0.534057615,0.7553100555,-14.251708926,-107.7,-194.1,-69.89999999999999,204566
-0.0739783357951748,0.020372885541424867,1.0031171322383408,0.9231567345,0.5874633765,-20.278930581,-100.5,-196.5,-69.3,204852
-0.052806499261447565,0.03037412026176071,1.006354154178156,1.190185542,-0.198364257,-22.766113188,-110.1,-203.7,-69.3,205138
-0.0310192023633678,0.036300777873811585,1.0051552571634097,1.5258789,-0.579833982,-23.574829005,-107.7,-201.29999999999998,-68.7,205424
-0.009724273756770064,0.047042844795653786,1.0095911761179714,1.9607543865000001,-0.183105468,-23.6434935555,-110.1,-196.5,-69.89999999999999,205710
0.004677498769079271,0.06988517100876651,1.008392279103225,1.8997192305,0.2212524405,-24.10888662,-105.3,-198.9,-69.3,205996
0.003569670113244707,0.10211137177429312,1.0097110658194461,2.029418937,0.2670288075,-23.826599023500002,-105.3,-198.9,-68.7,206283
-0.032619399310684395,0.143844919125818,1.0086320585061743,2.563476552,0.5111694315,-24.581909079,-102.89999999999999,-198.9,-69.89999999999999,206568
-0.04258985721319547,0.07618224472157056,1.0068337129840548,3.524780259,0.9231567345,-32.363891469,-93.3,-203.7,-68.7,206856
-0.03052683407188577,0.0666748981355723,1.0008392279103224,2.74658202,-0.6790161105,-36.7965696735,-98.1,-201.29999999999998,-68.7,207142
-0.012309207287050714,0.023953574515372267,0.9929265076129961,4.898071269,-0.885009762,-41.320800612,-93.3,-203.7,-70.5,207429
0.023633677991137372,0.027657735522904063,1.0058745953722574,8.08715817,-1.342773432,-42.861938301,-93.3,-198.9,-69.3,207714
0.04689807976366322,0.07235461168045437,1.0525116892458937,5.2185058380000005,-1.8234252855,-39.1616819685,-95.7,-203.7,-71.1,208001
-0.01883308714918759,0.0009877762686751452,1.0073132717899533,-0.9384155235,-0.488281248,-32.3410032855,-88.5,-203.7,-69.89999999999999,208286
0.0006154603643525357,-0.02839856772441042,1.0002397794029494,-0.8468627895,-0.0228881835,-33.0429075795,-93.3,-201.29999999999998,-69.3,208573
0.0224027572624323,0.020619829608593654,1.0125884186548375,0.4806518535,0.0076293945,-30.6472777065,-90.89999999999999,-208.5,-69.3,208859
0.019571639586410634,0.05605630324731448,1.008751948207649,0.4196166975,-0.1449584955,-24.093627831,-83.7,-208.5,-69.89999999999999,209146
0.00430822255046775,0.07926904556118039,1.0094712864164967,0.076293945,-0.289916991,-13.2980346135,-88.5,-210.9,-68.7,209431
-0.003692762186115214,0.03037412026176071,1.0086320585061743,0.091552734,-0.228881835,-13.8778685955,-90.89999999999999,-203.7,-68.1,209720
-0.009724273756770064,0.023089270280281515,1.0073132717899533,0.0228881835,-0.549316404,-17.578124928,-90.89999999999999,-201.29999999999998,-69.89999999999999,210006
-0.013786312161496799,0.048154093097913325,1.0038364704471885,0.1144409175,-0.717163083,-18.3486937725,-88.5,-208.5,-66.89999999999999,210293
-0.0189561792220581,0.05482158291147055,1.0098309555209208,0.1296997065,-0.8010864225,-18.142700121,-88.5,-208.5,-68.7,210581
-0.008739537173806006,0.059636992221261884,1.0038364704471885,0.1602172845,-0.869750973,-18.3639525615,-83.7,-210.9,-67.5,210868
-0.022648941408173313,0.06408198543030004,1.0093513967150223,0.0991821285,-0.854492184,-18.493652268,-81.3,-203.7,-70.5,211154
-0.02535696701132447,0.06346462526237807,1.0122287495504136,0.061035156,-0.5722045875,-18.2113646715,-90.89999999999999,-206.1,-67.5,211440
-0.041112752338749385,0.058772687986171135,1.0097110658194461,-0.030517578,-0.4348754865,-15.5868529635,-78.89999999999999,-208.5,-69.3,211726
-0.037543082225504676,0.06346462526237807,1.0119889701474643,-0.0228881835,-0.350952147,-13.2522582465,-88.5,-215.7,-69.89999999999999,212014
-0.034958148695224026,0.059883936288430674,1.0055149262678336,-0.0381469725,-0.1144409175,-11.7111205575,-81.3,-213.29999999999998,-68.1,212300
-0.03680452978828164,0.04827756513149772,1.008392279103225,-0.045776367,0.0686645505,-9.826660116,-78.89999999999999,-215.7,-71.1,212587
-0.03421959625800099,0.046795900728484996,1.0062342644766815,-0.198364257,0.1449584955,-7.0266723345,-78.89999999999999,-210.9,-70.5,212872
-0.042712949286065977,0.05000617360167922,1.0074331614914278,-0.076293945,0.213623046,-4.0206909015,-81.3,-210.9,-69.89999999999999,213161
-0.03052683407188577,0.055191999012223734,1.0091116173120729,0.1296997065,0.0,-0.8316040005,-83.7,-208.5,-69.89999999999999,213447
-0.013293943870014771,0.05445116681071737,1.00671382328258,-0.061035156,-0.061035156,1.007080074,-81.3,-206.1,-69.89999999999999,213734
-0.021294928606597735,0.05445116681071737,1.0088718379091237,-0.0228881835,0.1754760735,-0.3280639635,-78.89999999999999,-203.7,-71.1,214019
-0.01981782373215165,0.05087047783676997,1.0076729408943772,-0.045776367,0.091552734,-0.4501342755,-88.5,-215.7,-71.1,214307
-0.02031019202363368,0.054945054945054944,1.0079127202973264,0.122070312,0.015258789,-0.1602172845,-78.89999999999999,-203.7,-69.89999999999999,214594
-0.018586903003446578,0.057414495616742806,1.008751948207649,-0.045776367,0.0381469725,-0.198364257,-83.7,-210.9,-70.5,214881
-0.022525849335302807,0.05346339054204223,1.0099508452223953,0.0228881835,0.091552734,-0.3433227525,-83.7,-206.1,-69.89999999999999,215166
-0.021787296898079764,0.052846030374120265,1.008032609998801,0.045776367,0.1144409175,-0.2212524405,-81.3,-210.9,-69.89999999999999,215453
-0.02191038897095027,0.05445116681071737,1.0082723894017505,0.0534057615,0.0686645505,-0.1449584955,-78.89999999999999,-210.9,-68.1,215741
-0.01932545544066962,0.05482158291147055,1.007073492387004,-0.015258789,0.0991821285,-0.106811523,-83.7,-213.29999999999998,-69.89999999999999,216028
-0.02018709995076317,0.05469811087788616,1.006354154178156,-0.091552734,0.0991821285,-0.122070312,-83.7,-206.1,-69.3,216315
-0.019202363367799114,0.051734782071860726,1.0091116173120729,0.076293945,0.106811523,-0.0686645505,-78.89999999999999,-206.1,-69.3,216602
-0.019694731659281144,0.05371033460921101,1.0061143747752068,0.030517578,0.076293945,-0.1449584955,-81.3,-213.29999999999998,-68.7,216888
-0.02031019202363368,0.055191999012223734,1.0075530511929025,-0.0076293945,0.106811523,-0.1144409175,-81.3,-215.7,-68.7,217176
-0.022648941408173313,0.055191999012223734,1.0073132717899533,0.0228881835,0.045776367,-0.1602172845,-81.3,-210.9,-69.3,217462
-0.02031019202363368,0.056303247314483267,1.0073132717899533,-0.1296997065,0.030517578,-0.061035156,-83.7,-215.7,-69.3,217748
-0.01846381093057607,0.05420422274354859,1.0075530511929025,-0.0686645505,0.15258789,0.015258789,-83.7,-215.7,-69.3,218034
-0.01981782373215165,0.054945054945054944,1.0075530511929025,0.0076293945,0.122070312,-0.0686645505,-81.3,-210.9,-68.1,218322
-0.019202363367799114,0.055191999012223734,1.0095911761179714,0.0228881835,0.0534057615,-0.0991821285,-83.7,-206.1,-68.1,218608
-0.021048744460856722,0.05124089393752315,1.0065939335811054,-0.030517578,0.015258789,-0.1449584955,-78.89999999999999,-208.5,-69.3,218895
-0.019940915805022157,0.05469811087788616,1.0092315070135476,-0.091552734,0.015258789,-0.1144409175,-83.7,-210.9,-70.5,219180
-0.01932545544066962,0.0539572786763798,1.0058745953722574,0.0381469725,0.0228881835,-0.1602172845,-83.7,-206.1,-66.89999999999999,219467
-0.020925652387986212,0.05321644647487344,1.0081524997002758,0.061035156,0.0228881835,-0.1296997065,-78.89999999999999,-210.9,-68.7,219754
-0.019448547513540127,0.056303247314483267,1.0086320585061743,0.061035156,0.030517578,-0.1754760735,-78.89999999999999,-208.5,-69.3,220041
-0.019940915805022157,0.05543894307939252,1.0092315070135476,0.1296997065,0.091552734,-0.167846679,-86.1,-213.29999999999998,-69.3,220326
-0.019571639586410634,0.05605630324731448,1.0074331614914278,0.0686645505,0.1144409175,-0.1602172845,-83.7,-208.5,-67.5,220615
-0.019202363367799114,0.05358686257562662,1.007792830595852,0.0381469725,0.061035156,-0.061035156,-83.7,-210.9,-69.89999999999999,220901
-0.021664204825209258,0.05605630324731448,1.0074331614914278,0.076293945,0.0381469725,-0.183105468,-78.89999999999999,-210.9,-68.7,221188
-0.0189561792220581,0.05358686257562662,1.0046756983575111,0.0991821285,0.045776367,-0.2059936515,-86.1,-210.9,-68.7,221474
-0.019202363367799114,0.055068526978639336,1.006354154178156,-0.0686645505,0.091552734,-0.1754760735,-81.3,-213.29999999999998,-68.7,221760
-0.02117183653372723,0.05543894307939252,1.0093513967150223,-0.030517578,0.0839233395,-0.15258789,-81.3,-213.29999999999998,-70.5,222047
-0.020802560315115706,0.05482158291147055,1.008751948207649,0.167846679,0.106811523,-0.076293945,-78.89999999999999,-210.9,-69.3,222335
-0.020925652387986212,0.052969502407704656,1.0061143747752068,0.0228881835,-0.0381469725,-0.1144409175,-78.89999999999999,-210.9,-68.1,222620
-0.0206794682422452,0.053833806642795405,1.0068337129840548,-0.0381469725,0.0076293945,-0.15258789,-86.1,-213.29999999999998,-68.1,222907
-0.019571639586410634,0.05605630324731448,1.0092315070135476,0.0076293945,0.1296997065,-0.091552734,-83.7,-213.29999999999998,-68.7,223194
-0.018709995076317085,0.053833806642795405,1.0085121688046996,0.1296997065,0.106811523,-0.0686645505,-81.3,-206.1,-70.5,223481
-0.020925652387986212,0.054080750709964195,1.008032609998801,0.030517578,0.076293945,-0.1449584955,-81.3,-215.7,-70.5,223767
-0.018340718857705565,0.05457463884430177,1.0068337129840548,0.076293945,0.0991821285,-0.15258789,-78.89999999999999,-203.7,-68.7,224053
-0.018586903003446578,0.05605630324731448,1.0073132717899533,0.045776367,0.137329101,-0.1449584955,-78.89999999999999,-210.9,-69.89999999999999,224340
-0.019940915805022157,0.056179775280898875,1.0091116173120729,-0.015258789,0.122070312,-0.122070312,-83.7,-208.5,-68.7,224627
-0.020433284096504186,0.052969502407704656,1.0065939335811054,0.0076293945,0.0991821285,-0.0076293945,-81.3,-210.9,-68.7,224914
-0.01981782373215165,0.05346339054204223,1.007073492387004,0.015258789,0.0991821285,-0.0228881835,-81.3,-208.5,-67.5,225200
-0.019448547513540127,0.05469811087788616,1.00671382328258,-0.015258789,0.030517578,-0.106811523,-81.3,-208.5,-68.1,225485
-0.020556376169374693,0.05469811087788616,1.0039563601486632,0.091552734,0.0381469725,-0.15258789,-83.7,-208.5,-69.3,225773
-0.019571639586410634,0.053833806642795405,1.0075530511929025,0.0076293945,0.0534057615,-0.122070312,-76.5,-206.1,-68.1,226059
-0.018709995076317085,0.05543894307939252,1.007073492387004,0.045776367,0.076293945,-0.0991821285,-76.5,-208.5,-69.3,226345
-0.01772525849335303,0.05445116681071737,1.0047955880589858,0.076293945,0.0686645505,-0.122070312,-81.3,-215.7,-71.1,226631
-0.019202363367799114,0.055068526978639336,1.0073132717899533,0.0076293945,0.076293945,-0.1296997065,-83.7,-206.1,-70.5,226918
-0.0189561792220581,0.05346339054204223,1.0085121688046996,0.0,0.122070312,-0.0839233395,-81.3,-213.29999999999998,-68.7,227205
-0.0189561792220581,0.05543894307939252,1.0064740438796307,-0.0381469725,0.198364257,-0.0228881835,-81.3,-206.1,-68.7,227493
-0.020802560315115706,0.055068526978639336,1.0056348159693083,-0.061035156,0.0991821285,-0.1296997065,-86.1,-213.29999999999998,-67.5,227779
-0.02141802067946824,0.05457463884430177,1.0069536026855292,-0.061035156,0.0534057615,-0.0381469725,-81.3,-206.1,-70.5,228065
-0.019694731659281144,0.055068526978639336,1.008032609998801,-0.0228881835,0.0381469725,-0.137329101,-86.1,-203.7,-69.3,228351
-0.020433284096504186,0.05482158291147055,1.0044359189545617,0.076293945,0.091552734,-0.091552734,-90.89999999999999,-208.5,-68.1,228637
-0.02031019202363368,0.056303247314483267,1.0086320585061743,0.030517578,0.0686645505,-0.0228881835,-83.7,-206.1,-69.3,228923
-0.021664204825209258,0.057291023583158414,1.0068337129840548,0.137329101,0.0534057615,0.045776367,-78.89999999999999,-208.5,-69.89999999999999,229209
-0.019940915805022157,0.05445116681071737,1.0039563601486632,0.061035156,0.0686645505,-0.106811523,-83.7,-213.29999999999998,-67.5,229496
-0.020064007877892663,0.054080750709964195,1.0046756983575111,-0.0381469725,0.0534057615,-0.1296997065,-78.89999999999999,-213.29999999999998,-68.7,229782
-0.020802560315115706,0.05543894307939252,1.0081524997002758,0.0228881835,0.091552734,-0.0686645505,-81.3,-210.9,-68.7,230069
-0.018340718857705565,0.05333991850845783,1.0056348159693083,-0.015258789,0.0534057615,-0.106811523,-78.89999999999999,-206.1,-69.89999999999999,230355
-0.0206794682422452,0.05358686257562662,1.0058745953722574,0.030517578,0.091552734,-0.106811523,-78.89999999999999,-210.9,-69.3,230641
-0.020064007877892663,0.05420422274354859,1.0089917276105982,0.0991821285,0.0534057615,-0.076293945,-76.5,-215.7,-68.7,230928
-0.020433284096504186,0.055068526978639336,1.0046756983575111,0.045776367,0.030517578,-0.0686645505,-78.89999999999999,-203.7,-67.5,231214
-0.019079271294928608,0.053833806642795405,1.0045558086560364,0.0076293945,0.0076293945,-0.0839233395,-86.1,-208.5,-68.7,231500
-0.01846381093057607,0.054080750709964195,1.0062342644766815,0.0,0.0991821285,-0.106811523,-83.7,-213.29999999999998,-67.5,231785
-0.017971442639094042,0.054080750709964195,1.0061143747752068,0.0991821285,0.045776367,-0.1449584955,-83.7,-210.9,-68.7,232072
-0.02141802067946824,0.05556241511297691,1.0071933820884786,0.0228881835,0.0534057615,0.0228881835,-76.5,-213.29999999999998,-69.89999999999999,232357
-0.0206794682422452,0.054080750709964195,1.0064740438796307,0.091552734,0.122070312,-0.0991821285,-76.5,-218.1,-68.1,232646
-0.021787296898079764,0.05333991850845783,1.0073132717899533,0.0534057615,-0.0228881835,-0.091552734,-86.1,-206.1,-68.1,232931
-0.019448547513540127,0.05333991850845783,1.005035367461935,0.0381469725,0.106811523,-0.137329101,-81.3,-210.9,-67.5,233218
-0.021541112752338748,0.05346339054204223,1.006354154178156,-0.015258789,0.1144409175,-0.1296997065,-81.3,-210.9,-69.3,233504
-0.020556376169374693,0.052969502407704656,1.0076729408943772,-0.0228881835,0.045776367,-0.15258789,-78.89999999999999,-215.7,-69.3,233791
-0.021294928606597735,0.05543894307939252,1.00671382328258,0.0,0.015258789,-0.1296997065,-81.3,-213.29999999999998,-70.5,234076
-0.022895125553914326,0.05605630324731448,1.008751948207649,0.030517578,0.0,-0.137329101,-88.5,-206.1,-67.5,234363
-0.024249138355489905,0.054945054945054944,1.008032609998801,0.0991821285,0.0991821285,-0.0381469725,-76.5,-208.5,-71.1,234648
-0.019694731659281144,0.0558093591801457,1.0058745953722574,0.0381469725,0.0991821285,-0.1296997065,-81.3,-210.9,-66.89999999999999,234934
-0.020433284096504186,0.056303247314483267,1.0082723894017505,0.0991821285,0.0839233395,-0.015258789,-78.89999999999999,-208.5,-69.3,235221
-0.0206794682422452,0.054080750709964195,1.0058745953722574,0.061035156,0.0076293945,-0.0839233395,-81.3,-203.7,-69.3,235508
-0.019079271294928608,0.0556858871465613,1.0086320585061743,-0.061035156,0.091552734,-0.076293945,-81.3,-208.5,-68.7,235797
-0.01932545544066962,0.055068526978639336,1.0071933820884786,-0.015258789,0.1449584955,-0.015258789,-78.89999999999999,-210.9,-68.7,236084
-0.02141802067946824,0.054080750709964195,1.0049154777604603,0.0381469725,0.137329101,-0.0381469725,-78.89999999999999,-210.9,-69.89999999999999,236370
-0.021048744460856722,0.05457463884430177,1.0074331614914278,-0.0381469725,0.0534057615,-0.0534057615,-86.1,-210.9,-68.1,236657
-0.019202363367799114,0.05692060748240523,1.00671382328258,-0.0228881835,0.122070312,-0.0228881835,-78.89999999999999,-208.5,-69.3,236944
-0.02018709995076317,0.054945054945054944,1.008032609998801,0.0076293945,0.1296997065,-0.0534057615,-83.7,-208.5,-69.3,237231
-0.020802560315115706,0.054080750709964195,1.0058745953722574,0.0534057615,-0.030517578,-0.1144409175,-81.3,-210.9,-69.89999999999999,237516
-0.01772525849335303,0.056179775280898875,1.0069536026855292,0.076293945,0.061035156,-0.0991821285,-86.1,-213.29999999999998,-68.7,237804
-0.010832102412604629,0.04593159649339425,1.0026375734324422,0.1144409175,0.0381469725,-0.1602172845,-86.1,-215.7,-69.89999999999999,238090
-0.01760216642048252,0.04383257192245956,1.0065939335811054,0.0381469725,0.122070312,-0.1907348625,-81.3,-213.29999999999998,-68.7,238378
-0.03409650418513048,0.06914433880726016,1.0039563601486632,0.061035156,0.0686645505,0.0076293945,-83.7,-206.1,-68.7,238664
-0.02018709995076317,0.06334115322879368,1.0074331614914278,-0.0686645505,0.091552734,0.0686645505,-83.7,-210.9,-69.3,238951
-0.02498769079271295,0.05692060748240523,1.0061143747752068,0.045776367,0.1296997065,-0.076293945,-83.7,-210.9,-68.1,239236
-0.015755785327424915,0.05655019138165206,1.0079127202973264,0.061035156,0.1296997065,-0.15258789,-81.3,-210.9,-70.5,239523
-0.013293943870014771,0.04482034819113471,1.0097110658194461,-0.0534057615,0.122070312,-0.1754760735,-76.5,-208.5,-69.3,239808
-0.018217626784835055,0.05099394987035436,1.008032609998801,0.015258789,0.106811523,-0.076293945,-78.89999999999999,-213.29999999999998,-69.89999999999999,240095
-0.020556376169374693,0.05198172613902951,1.0068337129840548,0.0534057615,0.0534057615,-0.167846679,-83.7,-210.9,-69.89999999999999,240382
-0.020064007877892663,0.059883936288430674,1.0068337129840548,-0.0076293945,0.0228881835,0.030517578,-81.3,-213.29999999999998,-68.1,240668
-0.022648941408173313,0.056303247314483267,1.007792830595852,-0.106811523,0.045776367,-0.0534057615,-76.5,-206.1,-68.7,240956
-0.021541112752338748,0.057291023583158414,1.0058745953722574,0.0381469725,0.0534057615,-0.091552734,-83.7,-213.29999999999998,-68.1,241242
-0.020556376169374693,0.05803185578466477,1.0069536026855292,0.045776367,0.106811523,-0.15258789,-83.7,-218.1,-68.7,241528
-0.021294928606597735,0.05371033460921101,1.00671382328258,-0.0076293945,0.0534057615,-0.137329101,-83.7,-210.9,-69.3,241815
-0.019079271294928608,0.050376589702432396,1.0071933820884786,-0.076293945,0.0381469725,-0.15258789,-81.3,-215.7,-69.89999999999999,242101
-0.015755785327424915,0.04519076429188789,1.0089917276105982,-0.015258789,0.045776367,-0.1449584955,-81.3,-210.9,-69.3,242388
-0.01501723289020187,0.04642548462773182,1.0064740438796307,0.0076293945,0.030517578,-0.045776367,-78.89999999999999,-201.29999999999998,-68.7,242673
-0.024249138355489905,0.05692060748240523,1.0082723894017505,-0.030517578,0.122070312,-0.0381469725,-81.3,-208.5,-69.89999999999999,242962
-0.025110782865583457,0.061242128657858996,1.0065939335811054,0.061035156,0.0686645505,0.0076293945,-86.1,-208.5,-68.7,243248
-0.0224027572624323,0.05840227188541795,1.007073492387004,0.0,0.0381469725,-0.061035156,-86.1,-210.9,-68.7,243535
-0.017232890201871,0.054945054945054944,1.0047955880589858,-0.030517578,0.076293945,-0.091552734,-78.89999999999999,-210.9,-69.89999999999999,243820
-0.01772525849335303,0.0539572786763798,1.0059944850737321,0.015258789,0.1449584955,-0.1449584955,-78.89999999999999,-208.5,-70.5,244107
-0.018217626784835055,0.049265341400172864,1.0076729408943772,0.0228881835,0.0076293945,-0.091552734,-83.7,-210.9,-70.5,244393
-0.018709995076317085,0.0485245091986665,1.008751948207649,0.0,-0.015258789,-0.0686645505,-83.7,-210.9,-68.1,244682
-0.021294928606597735,0.0522286702061983,1.00671382328258,-0.061035156,0.0076293945,0.0076293945,-86.1,-208.5,-69.89999999999999,244967
-0.01981782373215165,0.05704407951598963,1.0069536026855292,0.076293945,0.0991821285,0.015258789,-78.89999999999999,-203.7,-69.3,245254
-0.022033481043820777,0.05716755154957402,1.006354154178156,0.0381469725,0.061035156,0.0,-86.1,-208.5,-69.3,245541
-0.023510585918266862,0.05815532781824917,1.005754705670783,0.045776367,0.0839233395,-0.15258789,-76.5,-215.7,-66.89999999999999,245829
-0.020925652387986212,0.057414495616742806,1.00671382328258,-0.0686645505,0.0839233395,-0.0228881835,-88.5,-206.1,-69.3,246115
-0.01981782373215165,0.05432769477713298,1.0075530511929025,-0.0839233395,0.045776367,-0.061035156,-78.89999999999999,-210.9,-66.89999999999999,246401
-0.017479074347612013,0.0521051981726139,1.008032609998801,0.091552734,0.0686645505,-0.0839233395,-81.3,-210.9,-68.1,246688
-0.018217626784835055,0.050376589702432396,1.0061143747752068,-0.0228881835,0.0534057615,-0.228881835,-81.3,-208.5,-67.5,246974
-0.017232890201871,0.05371033460921101,1.006354154178156,-0.061035156,0.076293945,-0.0534057615,-83.7,-215.7,-70.5,247260
-0.02031019202363368,0.05371033460921101,1.0085121688046996,0.0228881835,0.045776367,-0.091552734,-78.89999999999999,-206.1,-69.3,247546
-0.022648941408173313,0.05889616001975553,1.00671382328258,0.045776367,0.045776367,-0.106811523,-78.89999999999999,-215.7,-69.3,247832
-0.02018709995076317,0.059760464254846275,1.0056348159693083,0.030517578,0.0,-0.1144409175,-81.3,-201.29999999999998,-68.1,248119
-0.01932545544066962,0.05605630324731448,1.0053950365663589,-0.122070312,0.045776367,-0.1144409175,-81.3,-203.7,-70.5,248407
-0.020064007877892663,0.05457463884430177,1.00671382328258,-0.091552734,0.061035156,-0.0839233395,-78.89999999999999,-215.7,-70.5,248694
-0.017971442639094042,0.05371033460921101,1.007073492387004,-0.106811523,0.1296997065,-0.122070312,-86.1,-210.9,-68.1,248981
-0.019202363367799114,0.05235214223978269,1.0068337129840548,0.0228881835,0.1449584955,-0.076293945,-81.3,-213.29999999999998,-68.7,249270
-0.022279665189561794,0.0522286702061983,1.0071933820884786,-0.0076293945,-0.0076293945,-0.0381469725,-78.89999999999999,-215.7,-69.3,249556
-0.019571639586410634,0.05358686257562662,1.0065939335811054,0.045776367,0.0686645505,-0.0839233395,-83.7,-213.29999999999998,-69.89999999999999,249843
-0.0206794682422452,0.05482158291147055,1.0079127202973264,-0.0381469725,0.030517578,0.0076293945,-81.3,-210.9,-68.7,250129
-0.020433284096504186,0.05482158291147055,1.0073132717899533,-0.0228881835,-0.0534057615,-0.0076293945,-78.89999999999999,-208.5,-70.5,250415
-0.02018709995076317,0.05321644647487344,1.0064740438796307,-0.0076293945,0.0534057615,-0.030517578,-86.1,-215.7,-69.3,250702
-0.021048744460856722,0.05346339054204223,1.0079127202973264,0.0839233395,0.0381469725,0.0,-81.3,-213.29999999999998,-68.7,250990
-0.019202363367799114,0.0521051981726139,1.0045558086560364,0.0381469725,0.0228881835,-0.0686645505,-83.7,-208.5,-69.89999999999999,251276
-0.02117183653372723,0.0521051981726139,1.0055149262678336,0.030517578,0.030517578,-0.1602172845,-83.7,-213.29999999999998,-69.3,251562
-0.020802560315115706,0.05556241511297691,1.0074331614914278,0.045776367,0.0839233395,-0.061035156,-83.7,-213.29999999999998,-69.3,251848
-0.020064007877892663,0.055068526978639336,1.0064740438796307,0.0381469725,0.1296997065,-0.045776367,-81.3,-210.9,-69.3,252135
-0.02191038897095027,0.05778491171749599,1.0092315070135476,0.0991821285,0.076293945,-0.091552734,-78.89999999999999,-206.1,-69.3,252420
-0.019448547513540127,0.056303247314483267,1.0086320585061743,0.0991821285,0.061035156,-0.106811523,-86.1,-213.29999999999998,-68.7,252707
-0.01772525849335303,0.056179775280898875,1.0031171322383408,0.0839233395,-0.0076293945,-0.1296997065,-86.1,-215.7,-67.5,252992
-0.02191038897095027,0.05679713544882084,1.0058745953722574,0.030517578,-0.015258789,-0.0076293945,-86.1,-213.29999999999998,-69.89999999999999,253282
-0.020556376169374693,0.056179775280898875,1.006354154178156,0.015258789,0.076293945,-0.0839233395,-81.3,-210.9,-69.89999999999999,253568
-0.016863613983259477,0.05000617360167922,1.0074331614914278,0.061035156,0.091552734,-0.106811523,-81.3,-215.7,-67.5,253855
-0.022279665189561794,0.05346339054204223,1.0069536026855292,-0.106811523,0.0381469725,-0.106811523,-81.3,-210.9,-68.7,254141
-0.0189561792220581,0.055315471045808126,1.0081524997002758,-0.106811523,0.0381469725,-0.0991821285,-81.3,-213.29999999999998,-69.3,254427
-0.021541112752338748,0.05371033460921101,1.0049154777604603,0.015258789,0.122070312,0.030517578,-78.89999999999999,-206.1,-70.5,254713
-0.022279665189561794,0.056426719348067665,1.006354154178156,0.0076293945,0.0686645505,-0.1449584955,-78.89999999999999,-208.5,-69.89999999999999,255000
-0.01883308714918759,0.05457463884430177,1.0074331614914278,0.0534057615,0.1144409175,-0.061035156,-81.3,-208.5,-69.89999999999999,255286
-0.018217626784835055,0.05704407951598963,1.005754705670783,-0.0228881835,0.106811523,-0.0686645505,-78.89999999999999,-213.29999999999998,-69.89999999999999,255573
-0.019694731659281144,0.056426719348067665,1.0094712864164967,-0.045776367,0.015258789,-0.137329101,-86.1,-213.29999999999998,-67.5,255860
-0.02031019202363368,0.05556241511297691,1.00671382328258,0.0839233395,-0.015258789,-0.0991821285,-81.3,-215.7,-69.3,256147
-0.021664204825209258,0.05247561427336708,1.0076729408943772,-0.061035156,0.1296997065,-0.061035156,-86.1,-215.7,-69.89999999999999,256433
-0.022033481043820777,0.051487838004691935,1.0076729408943772,-0.061035156,0.076293945,-0.045776367,-86.1,-215.7,-67.5,256719
-0.021541112752338748,0.05457463884430177,1.0058745953722574,-0.030517578,0.045776367,-0.015258789,-86.1,-206.1,-68.7,257005
-0.01809453471196455,0.055191999012223734,1.0082723894017505,0.0076293945,0.106811523,-0.091552734,-76.5,-206.1,-68.7,257292
-0.019202363367799114,0.05543894307939252,1.0068337129840548,-0.030517578,0.0991821285,-0.0991821285,-81.3,-210.9,-69.89999999999999,257577
-0.02031019202363368,0.05655019138165206,1.0069536026855292,0.0228881835,0.091552734,-0.0991821285,-81.3,-213.29999999999998,-70.5,257864
-0.020556376169374693,0.0539572786763798,1.007073492387004,0.015258789,0.061035156,-0.061035156,-83.7,-213.29999999999998,-71.7,258149
-0.0189561792220581,0.052599086306951474,1.0052751468648844,0.0,0.106811523,-0.061035156,-83.7,-218.1,-68.7,258439
-0.020802560315115706,0.052722558340535866,1.0081524997002758,0.061035156,0.061035156,-0.061035156,-81.3,-208.5,-70.5,258724
-0.02031019202363368,0.05333991850845783,1.0089917276105982,0.0,-0.0076293945,-0.0076293945,-81.3,-210.9,-68.1,259011
-0.019571639586410634,0.0539572786763798,1.0085121688046996,-0.0381469725,0.137329101,0.0,-83.7,-208.5,-68.7,259296
-0.020556376169374693,0.05667366341523645,1.0069536026855292,0.045776367,0.1144409175,-0.106811523,-88.5,-201.29999999999998,-70.5,259583
-0.0206794682422452,0.053833806642795405,1.0044359189545617,0.0686645505,0.030517578,-0.091552734,-88.5,-210.9,-69.89999999999999,259868
-0.022033481043820777,0.055068526978639336,1.0056348159693083,0.045776367,0.0228881835,-0.045776367,-81.3,-208.5,-69.89999999999999,260154
-0.0206794682422452,0.05543894307939252,1.0049154777604603,0.015258789,0.076293945,-0.0686645505,-83.7,-215.7,-69.3,260440
-0.01932545544066962,0.05321644647487344,1.007073492387004,-0.061035156,0.0839233395,-0.213623046,-83.7,-215.7,-69.3,260726
-0.021664204825209258,0.05309297444128905,1.0082723894017505,0.0534057615,0.0534057615,-0.076293945,-81.3,-215.7,-68.7,261014
-0.0189561792220581,0.05309297444128905,1.0059944850737321,0.061035156,0.076293945,-0.15258789,-83.7,-213.29999999999998,-70.5,261301
-0.019694731659281144,0.05333991850845783,1.0074331614914278,-0.030517578,0.045776367,-0.137329101,-74.1,-208.5,-70.5,261587
-0.021787296898079764,0.05198172613902951,1.0092315070135476,0.0228881835,0.061035156,-0.213623046,-86.1,-213.29999999999998,-70.5,261873
-0.0189561792220581,0.05556241511297691,1.008751948207649,0.091552734,0.0,0.0,-76.5,-210.9,-70.5,262162
-0.021048744460856722,0.057537967650327204,1.007792830595852,0.0228881835,0.0534057615,0.0228881835,-78.89999999999999,-210.9,-67.5,262448
-0.021787296898079764,0.0556858871465613,1.0086320585061743,-0.0381469725,0.1449584955,-0.106811523,-76.5,-208.5,-68.7,262734
-0.0189561792220581,0.05445116681071737,1.0091116173120729,0.0534057615,0.106811523,-0.0991821285,-81.3,-208.5,-68.7,263020
-0.017848350566223536,0.05333991850845783,1.0056348159693083,0.0686645505,0.0991821285,-0.061035156,-83.7,-210.9,-69.3,263305
-0.019571639586410634,0.05309297444128905,1.0075530511929025,0.0,0.076293945,-0.106811523,-81.3,-206.1,-69.3,263594
-0.021541112752338748,0.0522286702061983,1.0062342644766815,-0.0534057615,0.0839233395,-0.076293945,-78.89999999999999,-203.7,-68.7,263879
-0.020556376169374693,0.055191999012223734,1.0065939335811054,0.0076293945,0.122070312,-0.0228881835,-83.7,-210.9,-68.7,264166
-0.020556376169374693,0.05605630324731448,1.0056348159693083,-0.091552734,0.0076293945,-0.0534057615,-86.1,-208.5,-69.89999999999999,264451
-0.01760216642048252,0.05420422274354859,1.0069536026855292,0.137329101,0.0686645505,-0.0686645505,-78.89999999999999,-210.9,-70.5,264739
-0.020064007877892663,0.052599086306951474,1.0059944850737321,0.0534057615,0.0839233395,-0.0686645505,-88.5,-210.9,-70.5,265028
-0.018586903003446578,0.051734782071860726,1.0059944850737321,-0.0686645505,0.167846679,-0.106811523,-86.1,-210.9,-69.89999999999999,265315
-0.01932545544066962,0.054080750709964195,1.007792830595852,-0.045776367,0.0991821285,-0.091552734,-83.7,-213.29999999999998,-69.89999999999999,265604
-0.021787296898079764,0.05482158291147055,1.0097110658194461,0.0076293945,0.106811523,-0.015258789,-83.7,-213.29999999999998,-68.1,265893
-0.02018709995076317,0.05692060748240523,1.0075530511929025,-0.0381469725,0.0686645505,0.045776367,-83.7,-208.5,-69.89999999999999,266181
-0.02031019202363368,0.055315471045808126,1.0047955880589858,0.0228881835,0.045776367,0.0228881835,-90.89999999999999,-206.1,-71.1,266470
-0.019694731659281144,0.05605630324731448,1.00671382328258,0.0,0.0228881835,-0.0839233395,-81.3,-210.9,-68.7,266757
-0.02031019202363368,0.054945054945054944,1.0062342644766815,-0.0534057615,0.076293945,-0.167846679,-83.7,-213.29999999999998,-68.1,267043
-0.01846381093057607,0.052969502407704656,1.0082723894017505,0.0,0.076293945,-0.1144409175,-88.5,-206.1,-68.7,267330
-0.020433284096504186,0.05161131003827633,1.0079127202973264,0.0991821285,0.091552734,-0.1602172845,-83.7,-213.29999999999998,-68.7,267617
-0.021664204825209258,0.051734782071860726,1.007073492387004,-0.0839233395,0.1296997065,-0.1144409175,-81.3,-208.5,-69.89999999999999,267904
-0.0206794682422452,0.05482158291147055,1.0074331614914278,0.0534057615,0.0839233395,0.015258789,-83.7,-215.7,-68.7,268193
-0.020064007877892663,0.05655019138165206,1.0068337129840548,0.0381469725,0.0534057615,0.0076293945,-78.89999999999999,-210.9,-71.1,268482
-0.020433284096504186,0.05889616001975553,1.007792830595852,-0.061035156,0.061035156,-0.0381469725,-78.89999999999999,-210.9,-69.3,268771
